onset	duration	trial_type	trial_name	prime_stim	targ_stim	response_time	resp	cresp	acc
1.506	5.816	6	PercN	_F3_f4.bmp	_F2_d4.bmp	1030	8	8	1
7.322	5.799	2	OnPy	T3_fall.bmp	T1_crawl.bmp	1046	7	7	1
13.121	4.8	4	OnPn	T3_gross.bmp	T1_post.bmp	1375	7	8	0
17.921	4.799	2	OnPy	T3_tense.bmp	T0_fence.bmp	807	7	7	1
22.72	5.316	2	OnPy	T3_soup.bmp	T1_loop.bmp	960	7	7	1
28.036	5.316	6	PercN	_F3_e4.bmp	_F0_s4.bmp	1068	8	8	1
33.352	4.783	6	PercN	_F3_b4.bmp	_F0_f4.bmp	968	8	8	1
38.135	5.299	4	OnPn	T3_pool.bmp	T2_tooth.bmp	1937	8	8	1
43.434	5.799	4	OnPn	T3_both.bmp	T2_stroke.bmp	1230	8	8	1
49.233	4.8	1	OyPy	T3_quart.bmp	T1_wart.bmp	1087	7	7	1
54.033	5.316	7	FixY	Gen/_Fix_Red.bmp	Gen/_Fix_Red.bmp	871	7	7	1
59.349	5.299	5	PercY	_F3_d4.bmp	_F0_d4.bmp	1051	7	7	1
64.648	5.799	5	PercY	_F3_e4.bmp	_F2_e4.bmp	1248	7	7	1
70.447	4.8	3	OyPn	T3_smooth.bmp	T0_tooth.bmp	1169	8	8	1
75.247	4.799	2	OnPy	T3_stool.bmp	T1_rule.bmp	833	7	7	1
80.046	5.316	8	FixN	Gen/_Fix_Red.bmp	Gen/_Fix_Green.bmp	962	8	8	1
85.362	5.299	4	OnPn	T3_flight.bmp	T0_threat.bmp	1614	8	8	1
90.661	5.3	2	OnPy	T3_bluff.bmp	T2_tough.bmp	1059	7	7	1
95.961	5.799	6	PercN	_F3_s4.bmp	_F1_e4.bmp	1351	8	8	1
101.76	5.799	2	OnPy	T3_halt.bmp	T0_fault.bmp	1960	7	7	1
107.559	4.816	4	OnPn	T3_dried.bmp	T1_stood.bmp	1225	8	8	1
112.375	4.8	1	OyPy	T3_brow.bmp	T2_cow.bmp	1505	7	7	1
117.175	5.799	1	OyPy	T3_goat.bmp	T1_float.bmp	1329	7	7	1
122.974	4.799	1	OyPy	T3_glide.bmp	T2_bride.bmp	1138	7	7	1
127.773	5.3	7	FixY	Gen/_Fix_Red.bmp	Gen/_Fix_Red.bmp	931	7	7	1
133.073	4.799	8	FixN	Gen/_Fix_Red.bmp	Gen/_Fix_Green.bmp	2519	8	8	1
137.872	5.816	3	OyPn	T3_plead.bmp	T2_spread.bmp	3240	8	8	1
143.688	4.799	5	PercY	_F3_d6.bmp	_F1_d6.bmp	3024	8	7	0
148.487	5.3	2	OnPy	T3_roast.bmp	T2_ghost.bmp	961	7	7	1
153.787	4.816	5	PercY	_F3_e6.bmp	_F2_e6.bmp	1285	7	7	1
158.603	5.799	8	FixN	Gen/_Fix_Red.bmp	Gen/_Fix_Green.bmp	3845	7	8	0
164.402	5.799	2	OnPy	T3_odd.bmp	T0_rod.bmp	3758	7	7	1
170.201	5.3	1	OyPy	T3_spoon.bmp	T1_noon.bmp	1343	7	7	1
175.501	5.799	7	FixY	Gen/_Fix_Green.bmp	Gen/_Fix_Green.bmp	1131	7	7	1
181.3	4.799	7	FixY	Gen/_Fix_Green.bmp	Gen/_Fix_Green.bmp	812	7	7	1
186.099	4.8	7	FixY	Gen/_Fix_Red.bmp	Gen/_Fix_Red.bmp	1349	7	7	1
190.899	5.816	8	FixN	Gen/_Fix_Green.bmp	Gen/_Fix_Red.bmp	1085	8	8	1
196.715	4.799	3	OyPn	T3_breath.bmp	T0_wreath.bmp	1981	8	8	1
201.514	5.299	1	OyPy	T3_neat.bmp	T2_wheat.bmp	1926	7	7	1
206.813	5.8	3	OyPn	T3_mouth.bmp	T1_youth.bmp	1187	8	8	1
212.613	5.799	1	OyPy	T3_toss.bmp	T0_moss.bmp	1148	7	7	1
218.412	5.316	5	PercY	_F3_f6.bmp	_F1_f6.bmp	1636	7	7	1
223.728	5.799	4	OnPn	T3_rule.bmp	T0_blur.bmp	1024	8	8	1
229.527	5.299	3	OyPn	T3_tomb.bmp	T2_comb.bmp	1233	8	8	1
234.826	5.8	5	PercY	_F3_o6.bmp	_F0_o6.bmp	1182	7	7	1
240.626	4.816	4	OnPn	T3_june.bmp	T1_loop.bmp	1110	8	8	1
245.442	5.299	2	OnPy	T3_warm.bmp	T2_form.bmp	2662	7	7	1
250.741	5.299	4	OnPn	T3_rum.bmp	T2_touch.bmp	1043	8	8	1
256.04	4.8	3	OyPn	T3_gross.bmp	T1_moss.bmp	2400	8	8	1
260.84	4.799	4	OnPn	T3_glow.bmp	T0_stove.bmp	2608	8	8	1
265.639	5.816	4	OnPn	T3_wheel.bmp	T2_sneak.bmp	2961	8	8	1
271.455	5.299	3	OyPn	T3_cow.bmp	T0_glow.bmp	3105	8	8	1
276.754	5.3	1	OyPy	T3_pile.bmp	T1_mile.bmp	2782	7	7	1
282.054	5.816	2	OnPy	T3_cheek.bmp	T1_sneak.bmp	3258	7	7	1
287.87	5.299	4	OnPn	T3_youth.bmp	T0_hint.bmp	1234	8	8	1
293.169	4.799	2	OnPy	T3_thief.bmp	T0_beef.bmp	3680	7	7	1
297.968	5.3	8	FixN	Gen/_Fix_Green.bmp	Gen/_Fix_Red.bmp	784	8	8	1
303.268	5.799	3	OyPn	T3_swarm.bmp	T2_harm.bmp	2412	8	8	1
309.067	4.799	6	PercN	_F3_o6.bmp	_F2_b6.bmp	1125	8	8	1
313.866	5.3	3	OyPn	T3_both.bmp	T1_cloth.bmp	1246	8	8	1
319.166	4.816	8	FixN	Gen/_Fix_Green.bmp	Gen/_Fix_Red.bmp	1506	8	8	1
323.982	5.799	4	OnPn	T3_cream.bmp	T1_swarm.bmp	1714	8	8	1
329.781	5.299	3	OyPn	T3_ford.bmp	T0_word.bmp	1723	8	8	1
335.08	5.3	1	OyPy	T3_vase.bmp	T2_chase.bmp	1264	7	7	1
340.38	5.299	6	PercN	_F3_f6.bmp	_F1_d6.bmp	1100	8	8	1
345.679	5.816	1	OyPy	T3_flood.bmp	T0_blood.bmp	1017	7	7	1
351.495	4.799	2	OnPy	T3_quart.bmp	T2_port.bmp	1121	7	7	1
356.294	4.8	3	OyPn	T3_swap.bmp	T1_gap.bmp	1130	8	8	1
361.094	4.799	1	OyPy	T3_frost.bmp	T0_cost.bmp	890	7	7	1
365.893	5.799	1	OyPy	T3_harm.bmp	T0_farm.bmp	1371	7	7	1
371.692	5.816	3	OyPn	T3_scratch.bmp	T2_watch.bmp	1260	8	8	1
377.508	5.333	7	FixY	Gen/_Fix_Green.bmp	Gen/_Fix_Green.bmp	540	7	7	1
