onset	duration	trial_type	trial_name	prime_stim	targ_stim	response_time	resp	cresp	acc
1.519	4.799	3	UnrN	T3_able.bmp	T1_party.bmp	1449	8	8	1
6.318	5.3	6	PercN	_F3_e6.bmp	_F2_s6.bmp	1642	8	8	1
11.618	4.799	2	LowY	T3_seafood.bmp	T2_shrimp.bmp	1670	7	7	1
16.417	4.8	6	PercN	_F3_d6.bmp	_F0_o6.bmp	1279	8	8	1
21.217	5.799	5	PercY	_F3_f6.bmp	_F0_f6.bmp	1440	7	7	1
27.016	5.299	6	PercN	_F3_e4.bmp	_F0_s4.bmp	1584	8	8	1
32.315	5.799	8	FixN	Gen/_Fix_Red.bmp	Gen/_Fix_Green.bmp	1693	8	8	1
38.114	5.283	2	LowY	T3_throw.bmp	T1_catch.bmp	1630	7	7	1
43.397	5.799	2	LowY	T3_save.bmp	T0_keep.bmp	1660	7	7	1
49.196	4.8	7	FixY	Gen/_Fix_Green.bmp	Gen/_Fix_Green.bmp	1676	7	7	1
53.996	5.799	3	UnrN	T3_jewel.bmp	T0_moan.bmp	1684	8	8	1
59.795	4.799	1	HighY	T3_washer.bmp	T1_dryer.bmp	1469	7	7	1
64.594	4.816	1	HighY	T3_sock.bmp	T0_shoe.bmp	1605	7	7	1
69.41	5.8	1	HighY	T3_touch.bmp	T2_feel.bmp	1590	7	7	1
75.21	5.282	7	FixY	Gen/_Fix_Green.bmp	Gen/_Fix_Green.bmp	1999	7	7	1
80.492	4.8	2	LowY	T3_glue.bmp	T2_sticky.bmp	1492	7	7	1
85.292	5.799	1	HighY	T3_yell.bmp	T0_scream.bmp	1429	7	7	1
91.091	5.299	2	LowY	T3_temper.bmp	T0_tantrum.bmp	3309	8	7	0
96.39	5.799	2	LowY	T3_cheese.bmp	T2_cracker.bmp	1434	8	7	0
102.189	5.3	3	UnrN	T3_rubber.bmp	T2_straw.bmp	2075	8	8	1
107.489	5.799	7	FixY	Gen/_Fix_Red.bmp	Gen/_Fix_Red.bmp	1343	7	7	1
113.288	4.799	5	PercY	_F3_o6.bmp	_F1_o6.bmp	1288	7	7	1
118.087	5.3	7	FixY	Gen/_Fix_Red.bmp	Gen/_Fix_Red.bmp	1233	7	7	1
123.387	5.299	1	HighY	T3_winner.bmp	T1_loser.bmp	1301	7	7	1
128.686	4.799	1	HighY	T3_start.bmp	T2_finish.bmp	1210	7	7	1
133.485	4.8	2	LowY	T3_children.bmp	T2_kids.bmp	1235	7	7	1
138.285	5.299	1	HighY	T3_question.bmp	T0_answer.bmp	819	7	7	1
143.584	4.8	3	UnrN	T3_stream.bmp	T0_rear.bmp	1624	8	8	1
148.384	4.799	7	FixY	Gen/_Fix_Green.bmp	Gen/_Fix_Green.bmp	1449	7	7	1
153.183	5.299	3	UnrN	T3_hearing.bmp	T0_bottle.bmp	1633	8	8	1
158.482	5.3	1	HighY	T3_above.bmp	T2_below.bmp	1662	7	7	1
163.782	5.299	8	FixN	Gen/_Fix_Green.bmp	Gen/_Fix_Red.bmp	1483	8	8	1
169.081	5.799	1	HighY	T3_circus.bmp	T2_clown.bmp	1663	7	7	1
174.88	5.299	5	PercY	_F3_f4.bmp	_F2_f4.bmp	1504	7	7	1
180.179	5.8	3	UnrN	T3_rich.bmp	T2_pointed.bmp	1709	8	8	1
185.979	5.799	6	PercN	_F3_s4.bmp	_F1_e4.bmp	1949	8	8	1
191.778	5.316	8	FixN	Gen/_Fix_Green.bmp	Gen/_Fix_Red.bmp	1630	8	8	1
197.094	5.799	1	HighY	T3_mitten.bmp	T1_glove.bmp	1282	7	7	1
202.893	5.783	2	LowY	T3_silent.bmp	T1_quiet.bmp	1811	7	7	1
208.676	4.799	3	UnrN	T3_towel.bmp	T1_puppet.bmp	1668	8	8	1
213.475	5.3	1	HighY	T3_syrup.bmp	T0_pancakes.bmp	1741	7	7	1
218.775	5.299	3	UnrN	T3_upper.bmp	T1_broke.bmp	1554	8	8	1
224.074	5.299	2	LowY	T3_lobster.bmp	T0_crab.bmp	1966	7	7	1
229.373	5.799	8	FixN	Gen/_Fix_Red.bmp	Gen/_Fix_Green.bmp	1795	8	8	1
235.172	5.8	3	UnrN	T3_ranch.bmp	T0_chin.bmp	1748	8	8	1
240.972	5.799	7	FixY	Gen/_Fix_Red.bmp	Gen/_Fix_Red.bmp	2860	7	7	1
246.771	5.299	2	LowY	T3_razor.bmp	T0_blade.bmp	1493	7	7	1
252.07	4.8	8	FixN	Gen/_Fix_Red.bmp	Gen/_Fix_Green.bmp	1482	8	8	1
256.87	4.799	1	HighY	T3_jam.bmp	T1_jelly.bmp	1643	7	7	1
261.669	5.799	2	LowY	T3_smudge.bmp	T1_smear.bmp	1779	8	7	0
267.468	4.8	3	UnrN	T3_clerk.bmp	T2_bent.bmp	1676	8	8	1
272.268	4.799	2	LowY	T3_finish.bmp	T1_end.bmp	1580	7	7	1
277.067	4.799	6	PercN	_F3_s6.bmp	_F2_e6.bmp	885	8	8	1
281.866	4.8	8	FixN	Gen/_Fix_Green.bmp	Gen/_Fix_Red.bmp	1462	8	8	1
286.666	5.299	5	PercY	_F3_s6.bmp	_F0_s6.bmp	1222	7	7	1
291.965	5.799	5	PercY	_F3_b4.bmp	_F1_b4.bmp	1507	7	7	1
297.764	4.8	5	PercY	_F3_e4.bmp	_F2_e4.bmp	1348	7	7	1
302.564	5.299	3	UnrN	T3_map.bmp	T2_hut.bmp	1804	8	8	1
307.863	5.799	3	UnrN	T3_scar.bmp	T1_tunnel.bmp	2137	8	8	1
313.662	5.316	6	PercN	_F3_b4.bmp	_F1_f4.bmp	1474	8	8	1
