onset	duration	trial_type	trial_name	prime_stim	targ_stim	response_time	resp	cresp	acc
1.512	4.799	3	OyPn	T3_post.bmp	T1_cost.bmp	2124	8	8	1
6.311	5.299	5	PercY	_F3_o4.bmp	_F2_o4.bmp	1245	7	7	1
11.61	4.817	2	OnPy	T3_rum.bmp	T1_numb.bmp	2290	7	7	1
16.427	5.799	7	FixY	Gen/_Fix_Green.bmp	Gen/_Fix_Green.bmp	1442	7	7	1
22.226	4.799	6	PercN	_F3_s6.bmp	_F0_e6.bmp	1362	8	8	1
27.025	4.8	1	OyPy	T3_fought.bmp	T1_sought.bmp	1507	7	7	1
31.825	4.799	1	OyPy	T3_scheme.bmp	T2_theme.bmp	1340	7	7	1
36.624	4.799	5	PercY	_F3_f4.bmp	_F0_f4.bmp	1292	7	7	1
41.423	5.316	1	OyPy	T3_stool.bmp	T0_fool.bmp	1557	7	7	1
46.739	5.3	1	OyPy	T3_soak.bmp	T0_oak.bmp	1241	7	7	1
52.039	5.299	3	OyPn	T3_threat.bmp	T1_wheat.bmp	1493	8	8	1
57.338	4.816	1	OyPy	T3_thread.bmp	T0_spread.bmp	1194	7	7	1
62.154	5.799	2	OnPy	T3_pile.bmp	T1_trial.bmp	1354	7	7	1
67.953	5.8	4	OnPn	T3_swap.bmp	T2_watch.bmp	1691	8	8	1
73.753	5.799	8	FixN	Gen/_Fix_Green.bmp	Gen/_Fix_Red.bmp	1116	8	8	1
79.552	5.299	4	OnPn	T3_tough.bmp	T1_dull.bmp	1316	8	8	1
84.851	5.799	6	PercN	_F3_o4.bmp	_F2_b4.bmp	1185	8	8	1
90.65	5.8	1	OyPy	T3_sweep.bmp	T0_creep.bmp	1594	7	7	1
96.45	5.816	6	PercN	_F3_d6.bmp	_F1_o6.bmp	1218	8	8	1
102.266	4.799	8	FixN	Gen/_Fix_Green.bmp	Gen/_Fix_Red.bmp	1147	8	8	1
107.065	4.799	2	OnPy	T3_stroke.bmp	T1_soak.bmp	2155	7	7	1
111.864	5.3	4	OnPn	T3_trial.bmp	T0_fall.bmp	1436	8	8	1
117.164	5.799	5	PercY	_F3_s6.bmp	_F0_s6.bmp	1144	7	7	1
122.963	4.799	7	FixY	Gen/_Fix_Green.bmp	Gen/_Fix_Green.bmp	1425	7	7	1
127.762	4.816	8	FixN	Gen/_Fix_Red.bmp	Gen/_Fix_Green.bmp	1290	8	8	1
132.578	5.3	7	FixY	Gen/_Fix_Red.bmp	Gen/_Fix_Red.bmp	1194	7	7	1
137.878	4.799	1	OyPy	T3_beef.bmp	T1_reef.bmp	1294	7	7	1
142.677	5.799	3	OyPn	T3_wart.bmp	T1_smart.bmp	1351	8	8	1
148.476	5.8	3	OyPn	T3_dose.bmp	T0_pose.bmp	2416	8	8	1
154.276	4.799	3	OyPn	T3_touch.bmp	T1_couch.bmp	1385	8	8	1
159.075	4.816	6	PercN	_F3_e6.bmp	_F0_s6.bmp	1369	8	8	1
163.891	5.799	8	FixN	Gen/_Fix_Green.bmp	Gen/_Fix_Red.bmp	1193	8	8	1
169.69	5.8	7	FixY	Gen/_Fix_Green.bmp	Gen/_Fix_Green.bmp	1242	7	7	1
175.49	5.299	8	FixN	Gen/_Fix_Red.bmp	Gen/_Fix_Green.bmp	1531	8	8	1
180.789	4.799	7	FixY	Gen/_Fix_Red.bmp	Gen/_Fix_Red.bmp	1215	7	7	1
185.588	5.316	4	OnPn	T3_port.bmp	T1_warm.bmp	1448	8	8	1
190.904	5.816	2	OnPy	T3_june.bmp	T2_noon.bmp	1372	7	7	1
196.72	4.8	4	OnPn	T3_wreath.bmp	T0_leap.bmp	1236	8	8	1
201.52	4.782	5	PercY	_F3_b6.bmp	_F2_b6.bmp	1157	7	7	1
206.302	5.3	3	OyPn	T3_glove.bmp	T0_stove.bmp	1262	8	8	1
211.602	5.799	1	OyPy	T3_numb.bmp	T1_crumb.bmp	1442	7	7	1
217.401	4.816	3	OyPn	T3_stood.bmp	T2_flood.bmp	1331	8	8	1
222.217	5.299	5	PercY	_F3_s4.bmp	_F1_s4.bmp	1115	7	7	1
227.516	5.8	4	OnPn	T3_smart.bmp	T1_drought.bmp	1616	8	8	1
233.316	5.299	2	OnPy	T3_stir.bmp	T2_blur.bmp	1233	7	7	1
238.615	5.299	8	FixN	Gen/_Fix_Red.bmp	Gen/_Fix_Green.bmp	1165	8	8	1
243.914	5.316	7	FixY	Gen/_Fix_Red.bmp	Gen/_Fix_Red.bmp	1202	7	7	1
249.23	5.799	3	OyPn	T3_pool.bmp	T0_wool.bmp	1310	8	8	1
255.029	5.3	3	OyPn	T3_fought.bmp	T2_drought.bmp	1263	8	8	1
260.329	4.799	2	OnPy	T3_flight.bmp	T1_spite.bmp	1251	7	7	1
265.128	5.3	2	OnPy	T3_scheme.bmp	T0_cream.bmp	1308	7	7	1
270.428	5.299	6	PercN	_F3_b6.bmp	_F2_f6.bmp	1257	8	8	1
275.727	5.816	4	OnPn	T3_ghost.bmp	T0_pose.bmp	1213	8	8	1
281.543	4.799	4	OnPn	T3_grace.bmp	T1_fence.bmp	1501	8	8	1
286.342	4.799	3	OyPn	T3_dull.bmp	T2_bull.bmp	2406	7	8	0
291.141	4.8	4	OnPn	T3_ford.bmp	T2_rod.bmp	1687	8	8	1
295.941	5.299	1	OyPy	T3_strap.bmp	T2_gap.bmp	1351	7	7	1
301.24	5.3	4	OnPn	T3_stamp.bmp	T2_tomb.bmp	1284	8	8	1
306.54	5.316	2	OnPy	T3_wheel.bmp	T0_deal.bmp	1161	7	7	1
311.856	5.299	2	OnPy	T3_leap.bmp	T2_sweep.bmp	1677	7	7	1
317.155	4.799	4	OnPn	T3_fault.bmp	T2_note.bmp	1441	8	8	1
321.954	5.816	1	OyPy	T3_bull.bmp	T2_full.bmp	1337	7	7	1
327.77	5.799	2	OnPy	T3_chase.bmp	T2_grace.bmp	1570	7	7	1
333.569	4.783	2	OnPy	T3_float.bmp	T0_note.bmp	1443	7	7	1
338.352	5.816	2	OnPy	T3_bride.bmp	T0_dried.bmp	2812	8	7	0
344.168	5.799	4	OnPn	T3_thief.bmp	T0_plead.bmp	1340	8	8	1
349.967	5.3	1	OyPy	T3_bluff.bmp	T2_puff.bmp	1597	7	7	1
355.267	5.799	5	PercY	_F3_b4.bmp	_F1_b4.bmp	1257	7	7	1
361.066	5.816	1	OyPy	T3_shove.bmp	T1_glove.bmp	1506	7	7	1
366.882	5.299	6	PercN	_F3_d4.bmp	_F1_o4.bmp	1258	8	8	1
372.181	5.799	3	OyPn	T3_stamp.bmp	T2_swamp.bmp	1287	8	8	1
377.98	4.833	3	OyPn	T3_pint.bmp	T0_hint.bmp	2768	7	8	0
