onset	duration	trial_type	trial_name	prime_stim	targ_stim	response_time	resp	cresp	acc
1.505	5.299	3	UnrN	T3_system.bmp	T0_head.bmp	1458	8	8	1
6.804	5.8	2	LowY	T3_speak.bmp	T0_talk.bmp	1655	7	7	1
12.604	5.799	3	UnrN	T3_cobra.bmp	T1_slipper.bmp	1383	8	8	1
18.403	5.299	2	LowY	T3_distance.bmp	T2_mile.bmp	1664	7	7	1
23.702	5.3	8	FixN	Gen/_Fix_Red.bmp	Gen/_Fix_Green.bmp	1317	8	8	1
29.002	5.299	5	PercY	_F3_s4.bmp	_F2_s4.bmp	1794	7	7	1
34.301	5.299	3	UnrN	T3_chill.bmp	T0_hawk.bmp	1366	8	8	1
39.6	5.3	1	HighY	T3_thin.bmp	T0_fat.bmp	2371	7	7	1
44.9	5.299	1	HighY	T3_sketch.bmp	T0_draw.bmp	1680	7	7	1
50.199	5.299	7	FixY	Gen/_Fix_Red.bmp	Gen/_Fix_Red.bmp	1228	7	7	1
55.498	4.8	1	HighY	T3_dog.bmp	T2_cat.bmp	1513	7	7	1
60.298	4.799	2	LowY	T3_guide.bmp	T1_tour.bmp	2562	8	7	0
65.097	4.799	8	FixN	Gen/_Fix_Red.bmp	Gen/_Fix_Green.bmp	1714	8	8	1
69.896	5.816	3	UnrN	T3_adult.bmp	T0_pond.bmp	1467	8	8	1
75.712	5.8	7	FixY	Gen/_Fix_Green.bmp	Gen/_Fix_Green.bmp	1307	7	7	1
81.512	5.799	2	LowY	T3_reef.bmp	T0_coral.bmp	2276	7	7	1
87.311	5.782	5	PercY	_F3_e6.bmp	_F1_e6.bmp	2004	7	7	1
93.093	5.8	8	FixN	Gen/_Fix_Red.bmp	Gen/_Fix_Green.bmp	1446	8	8	1
98.893	4.799	1	HighY	T3_little.bmp	T1_big.bmp	1622	7	7	1
103.692	4.799	2	LowY	T3_motion.bmp	T1_movement.bmp	1751	7	7	1
108.491	4.8	3	UnrN	T3_hoof.bmp	T0_stitch.bmp	1496	8	8	1
113.291	5.799	2	LowY	T3_salad.bmp	T0_lettuce.bmp	1712	7	7	1
119.09	5.299	2	LowY	T3_lip.bmp	T1_kiss.bmp	1785	7	7	1
124.389	5.3	2	LowY	T3_shout.bmp	T1_yell.bmp	1150	7	7	1
129.689	5.299	1	HighY	T3_dime.bmp	T0_nickel.bmp	1786	7	7	1
134.988	5.299	5	PercY	_F3_o4.bmp	_F2_o4.bmp	1607	7	7	1
140.287	4.8	3	UnrN	T3_cream.bmp	T2_grip.bmp	1492	8	8	1
145.087	5.299	3	UnrN	T3_trust.bmp	T2_dozen.bmp	1748	8	8	1
150.386	4.799	3	UnrN	T3_sailing.bmp	T2_nest.bmp	1337	8	8	1
155.185	4.8	8	FixN	Gen/_Fix_Green.bmp	Gen/_Fix_Red.bmp	1794	8	8	1
159.985	4.799	3	UnrN	T3_pigeon.bmp	T1_gamble.bmp	1586	8	8	1
164.784	4.8	2	LowY	T3_maple.bmp	T2_syrup.bmp	1483	7	7	1
169.584	5.799	2	LowY	T3_hop.bmp	T0_skip.bmp	3627	7	7	1
175.383	5.299	6	PercN	_F3_f6.bmp	_F1_d6.bmp	1156	8	8	1
180.682	4.8	6	PercN	_F3_d4.bmp	_F0_o4.bmp	2217	8	8	1
185.482	5.799	8	FixN	Gen/_Fix_Green.bmp	Gen/_Fix_Red.bmp	1338	8	8	1
191.281	5.799	3	UnrN	T3_blanket.bmp	T1_split.bmp	1962	8	8	1
197.08	4.799	1	HighY	T3_yours.bmp	T1_mine.bmp	2547	7	7	1
201.879	5.816	3	UnrN	T3_corn.bmp	T1_blame.bmp	1252	8	8	1
207.695	5.3	3	UnrN	T3_hunter.bmp	T2_lemon.bmp	1756	8	8	1
212.995	5.299	7	FixY	Gen/_Fix_Red.bmp	Gen/_Fix_Red.bmp	1464	7	7	1
218.294	4.783	6	PercN	_F3_b6.bmp	_F1_f6.bmp	1174	8	8	1
223.077	5.799	1	HighY	T3_prison.bmp	T2_jail.bmp	1686	7	7	1
228.876	4.799	2	LowY	T3_hoot.bmp	T2_owl.bmp	1719	7	7	1
233.675	5.3	6	PercN	_F3_f4.bmp	_F0_d4.bmp	1544	8	8	1
238.975	5.299	2	LowY	T3_water.bmp	T2_drink.bmp	1836	7	7	1
244.274	5.799	7	FixY	Gen/_Fix_Green.bmp	Gen/_Fix_Green.bmp	1353	7	7	1
250.073	4.8	1	HighY	T3_table.bmp	T0_chair.bmp	1914	7	7	1
254.873	5.299	8	FixN	Gen/_Fix_Green.bmp	Gen/_Fix_Red.bmp	1226	8	8	1
260.172	5.799	1	HighY	T3_vine.bmp	T2_grape.bmp	1303	7	7	1
265.971	5.783	1	HighY	T3_noun.bmp	T1_verb.bmp	1272	7	7	1
271.754	5.799	6	PercN	_F3_o4.bmp	_F2_b4.bmp	1217	8	8	1
277.553	4.8	7	FixY	Gen/_Fix_Red.bmp	Gen/_Fix_Red.bmp	1666	7	7	1
282.353	4.799	5	PercY	_F3_b6.bmp	_F0_b6.bmp	2227	7	7	1
287.152	5.799	1	HighY	T3_lend.bmp	T1_borrow.bmp	1243	7	7	1
292.951	4.8	7	FixY	Gen/_Fix_Green.bmp	Gen/_Fix_Green.bmp	1372	7	7	1
297.751	5.299	1	HighY	T3_silver.bmp	T2_gold.bmp	1525	7	7	1
303.05	5.799	5	PercY	_F3_d6.bmp	_F1_d6.bmp	1497	7	7	1
308.849	5.799	6	PercN	_F3_o6.bmp	_F2_b6.bmp	1274	8	8	1
314.648	4.333	5	PercY	_F3_d4.bmp	_F0_d4.bmp	1299	7	7	1
