onset	duration	trial_type	trial_name	prime_stim	targ_stim	response_time	resp	cresp	acc
1.5	5.799	6	PercN	_F3_f4.bmp	_F2_d4.bmp	1028	8	8	1
7.299	5.8	2	OnPy	T3_fall.bmp	T1_crawl.bmp	1085	7	7	1
13.099	4.799	4	OnPn	T3_gross.bmp	T1_post.bmp	1470	8	8	1
17.898	4.816	2	OnPy	T3_tense.bmp	T0_fence.bmp	990	7	7	1
22.714	5.316	2	OnPy	T3_soup.bmp	T1_loop.bmp	1134	7	7	1
28.03	5.299	6	PercN	_F3_e4.bmp	_F0_s4.bmp	1226	8	8	1
33.329	4.8	6	PercN	_F3_b4.bmp	_F0_f4.bmp	999	8	8	1
38.129	5.299	4	OnPn	T3_pool.bmp	T2_tooth.bmp	1103	8	8	1
43.428	5.816	4	OnPn	T3_both.bmp	T2_stroke.bmp	1044	8	8	1
49.244	4.799	1	OyPy	T3_quart.bmp	T1_wart.bmp	1692	7	7	1
54.043	5.3	7	FixY	Gen/_Fix_Red.bmp	Gen/_Fix_Red.bmp	1149	7	7	1
59.343	5.299	5	PercY	_F3_d4.bmp	_F0_d4.bmp	1033	8	7	0
64.642	5.799	5	PercY	_F3_e4.bmp	_F2_e4.bmp	934	7	7	1
70.441	4.816	3	OyPn	T3_smooth.bmp	T0_tooth.bmp	2263	8	8	1
75.257	4.8	2	OnPy	T3_stool.bmp	T1_rule.bmp	1103	7	7	1
80.057	5.299	8	FixN	Gen/_Fix_Red.bmp	Gen/_Fix_Green.bmp	1079	8	8	1
85.356	5.299	4	OnPn	T3_flight.bmp	T0_threat.bmp	1132	8	8	1
90.655	5.3	2	OnPy	T3_bluff.bmp	T2_tough.bmp	1921	7	7	1
95.955	5.815	6	PercN	_F3_s4.bmp	_F1_e4.bmp	1142	8	8	1
101.77	5.783	2	OnPy	T3_halt.bmp	T0_fault.bmp	1166	7	7	1
107.553	4.799	4	OnPn	T3_dried.bmp	T1_stood.bmp	1302	8	8	1
112.352	4.8	1	OyPy	T3_brow.bmp	T2_cow.bmp	3120	8	7	0
117.152	5.799	1	OyPy	T3_goat.bmp	T1_float.bmp	1064	7	7	1
122.951	4.799	1	OyPy	T3_glide.bmp	T2_bride.bmp	1129	7	7	1
127.75	5.316	7	FixY	Gen/_Fix_Red.bmp	Gen/_Fix_Red.bmp	1034	7	7	1
133.066	4.8	8	FixN	Gen/_Fix_Red.bmp	Gen/_Fix_Green.bmp	950	8	8	1
137.866	5.799	3	OyPn	T3_plead.bmp	T2_spread.bmp	1086	8	8	1
143.665	4.826	5	PercY	_F3_d6.bmp	_F1_d6.bmp	991	7	7	1
148.491	5.299	2	OnPy	T3_roast.bmp	T2_ghost.bmp	1149	7	7	1
153.79	4.8	5	PercY	_F3_e6.bmp	_F2_e6.bmp	1050	7	7	1
158.59	5.799	8	FixN	Gen/_Fix_Red.bmp	Gen/_Fix_Green.bmp	1171	8	8	1
164.389	5.799	2	OnPy	T3_odd.bmp	T0_rod.bmp	1003	7	7	1
170.188	5.316	1	OyPy	T3_spoon.bmp	T1_noon.bmp	1492	7	7	1
175.504	5.799	7	FixY	Gen/_Fix_Green.bmp	Gen/_Fix_Green.bmp	1168	7	7	1
181.303	4.783	7	FixY	Gen/_Fix_Green.bmp	Gen/_Fix_Green.bmp	1130	7	7	1
186.086	4.799	7	FixY	Gen/_Fix_Red.bmp	Gen/_Fix_Red.bmp	1090	7	7	1
190.885	5.8	8	FixN	Gen/_Fix_Green.bmp	Gen/_Fix_Red.bmp	1147	8	8	1
196.685	4.816	3	OyPn	T3_breath.bmp	T0_wreath.bmp	2100	8	8	1
201.501	5.299	1	OyPy	T3_neat.bmp	T2_wheat.bmp	1124	7	7	1
206.8	5.799	3	OyPn	T3_mouth.bmp	T1_youth.bmp	1296	8	8	1
212.599	5.799	1	OyPy	T3_toss.bmp	T0_moss.bmp	1161	7	7	1
218.398	5.316	5	PercY	_F3_f6.bmp	_F1_f6.bmp	1051	7	7	1
223.714	5.816	4	OnPn	T3_rule.bmp	T0_blur.bmp	1038	8	8	1
229.53	5.3	3	OyPn	T3_tomb.bmp	T2_comb.bmp	1149	8	8	1
234.83	5.799	5	PercY	_F3_o6.bmp	_F0_o6.bmp	1194	7	7	1
240.629	4.799	4	OnPn	T3_june.bmp	T1_loop.bmp	978	8	8	1
245.428	5.316	2	OnPy	T3_warm.bmp	T2_form.bmp	1963	7	7	1
250.744	5.3	4	OnPn	T3_rum.bmp	T2_touch.bmp	919	8	8	1
256.044	4.799	3	OyPn	T3_gross.bmp	T1_moss.bmp	1205	8	8	1
260.843	4.799	4	OnPn	T3_glow.bmp	T0_stove.bmp	2685	8	8	1
265.642	5.8	4	OnPn	T3_wheel.bmp	T2_sneak.bmp	1389	8	8	1
271.442	5.316	3	OyPn	T3_cow.bmp	T0_glow.bmp	1342	8	8	1
276.758	5.299	1	OyPy	T3_pile.bmp	T1_mile.bmp	1074	7	7	1
282.057	5.799	2	OnPy	T3_cheek.bmp	T1_sneak.bmp	854	7	7	1
287.856	5.299	4	OnPn	T3_youth.bmp	T0_hint.bmp	911	8	8	1
293.155	4.8	2	OnPy	T3_thief.bmp	T0_beef.bmp	1405	7	7	1
297.955	5.316	8	FixN	Gen/_Fix_Green.bmp	Gen/_Fix_Red.bmp	1116	8	8	1
303.271	5.799	3	OyPn	T3_swarm.bmp	T2_harm.bmp	985	8	8	1
309.07	4.783	6	PercN	_F3_o6.bmp	_F2_b6.bmp	1265	8	8	1
313.853	5.299	3	OyPn	T3_both.bmp	T1_cloth.bmp	1115	8	8	1
319.152	4.799	8	FixN	Gen/_Fix_Green.bmp	Gen/_Fix_Red.bmp	1056	8	8	1
323.951	5.816	4	OnPn	T3_cream.bmp	T1_swarm.bmp	1248	8	8	1
329.767	5.3	3	OyPn	T3_ford.bmp	T0_word.bmp	1408	8	8	1
335.067	5.299	1	OyPy	T3_vase.bmp	T2_chase.bmp	1173	7	7	1
340.366	5.299	6	PercN	_F3_f6.bmp	_F1_d6.bmp	1105	8	8	1
345.665	5.799	1	OyPy	T3_flood.bmp	T0_blood.bmp	1150	7	7	1
351.464	4.817	2	OnPy	T3_quart.bmp	T2_port.bmp	1199	7	7	1
356.281	4.816	3	OyPn	T3_swap.bmp	T1_gap.bmp	2318	8	8	1
361.097	4.799	1	OyPy	T3_frost.bmp	T0_cost.bmp	2039	7	7	1
365.896	5.799	1	OyPy	T3_harm.bmp	T0_farm.bmp	1335	7	7	1
371.695	5.799	3	OyPn	T3_scratch.bmp	T2_watch.bmp	1936	8	8	1
377.494	5.35	7	FixY	Gen/_Fix_Green.bmp	Gen/_Fix_Green.bmp	945	7	7	1
