onset	duration	trial_type	trial_name	prime_stim	targ_stim	response_time	resp	cresp	acc
1.507	4.799	3	UnrN	T3_able.bmp	T1_party.bmp	3299	NA	8	NA
6.306	5.3	6	PercN	_F3_e6.bmp	_F2_s6.bmp	3799	NA	8	NA
11.606	4.799	2	LowY	T3_seafood.bmp	T2_shrimp.bmp	3299	NA	7	NA
16.405	4.799	6	PercN	_F3_d6.bmp	_F0_o6.bmp	3299	NA	8	NA
21.204	5.8	5	PercY	_F3_f6.bmp	_F0_f6.bmp	2427	7	7	1
27.004	5.299	6	PercN	_F3_e4.bmp	_F0_s4.bmp	1027	8	8	1
32.303	5.799	8	FixN	Gen/_Fix_Red.bmp	Gen/_Fix_Green.bmp	4299	NA	8	NA
38.102	5.3	2	LowY	T3_throw.bmp	T1_catch.bmp	1001	7	7	1
43.402	5.799	2	LowY	T3_save.bmp	T0_keep.bmp	4299	NA	7	NA
49.201	4.799	7	FixY	Gen/_Fix_Green.bmp	Gen/_Fix_Green.bmp	3299	NA	7	NA
54	5.8	3	UnrN	T3_jewel.bmp	T0_moan.bmp	4299	NA	8	NA
59.8	4.799	1	HighY	T3_washer.bmp	T1_dryer.bmp	584	7	7	1
64.599	4.816	1	HighY	T3_sock.bmp	T0_shoe.bmp	993	7	7	1
69.415	5.799	1	HighY	T3_touch.bmp	T2_feel.bmp	4299	NA	7	NA
75.214	5.283	7	FixY	Gen/_Fix_Green.bmp	Gen/_Fix_Green.bmp	3799	NA	7	NA
80.497	4.799	2	LowY	T3_glue.bmp	T2_sticky.bmp	750	7	7	1
85.296	5.799	1	HighY	T3_yell.bmp	T0_scream.bmp	4299	NA	7	NA
91.095	5.3	2	LowY	T3_temper.bmp	T0_tantrum.bmp	3799	NA	7	NA
96.395	5.799	2	LowY	T3_cheese.bmp	T2_cracker.bmp	4299	NA	7	NA
102.194	5.299	3	UnrN	T3_rubber.bmp	T2_straw.bmp	2189	8	8	1
107.493	5.8	7	FixY	Gen/_Fix_Red.bmp	Gen/_Fix_Red.bmp	4299	NA	7	NA
113.293	4.799	5	PercY	_F3_o6.bmp	_F1_o6.bmp	3299	NA	7	NA
118.092	5.299	7	FixY	Gen/_Fix_Red.bmp	Gen/_Fix_Red.bmp	3799	NA	7	NA
123.391	5.3	1	HighY	T3_winner.bmp	T1_loser.bmp	3799	NA	7	NA
128.691	4.799	1	HighY	T3_start.bmp	T2_finish.bmp	3299	NA	7	NA
133.49	4.799	2	LowY	T3_children.bmp	T2_kids.bmp	3299	NA	7	NA
138.289	5.3	1	HighY	T3_question.bmp	T0_answer.bmp	3799	NA	7	NA
143.589	4.799	3	UnrN	T3_stream.bmp	T0_rear.bmp	3299	NA	8	NA
148.388	4.799	7	FixY	Gen/_Fix_Green.bmp	Gen/_Fix_Green.bmp	779	7	7	1
153.187	5.3	3	UnrN	T3_hearing.bmp	T0_bottle.bmp	3799	NA	8	NA
158.487	5.299	1	HighY	T3_above.bmp	T2_below.bmp	1761	7	7	1
163.786	5.299	8	FixN	Gen/_Fix_Green.bmp	Gen/_Fix_Red.bmp	3799	NA	8	NA
169.085	5.8	1	HighY	T3_circus.bmp	T2_clown.bmp	4299	NA	7	NA
174.885	5.299	5	PercY	_F3_f4.bmp	_F2_f4.bmp	3799	NA	7	NA
180.184	5.799	3	UnrN	T3_rich.bmp	T2_pointed.bmp	4299	NA	8	NA
185.983	5.8	6	PercN	_F3_s4.bmp	_F1_e4.bmp	4299	NA	8	NA
191.783	5.316	8	FixN	Gen/_Fix_Green.bmp	Gen/_Fix_Red.bmp	3799	NA	8	NA
197.099	5.799	1	HighY	T3_mitten.bmp	T1_glove.bmp	4299	NA	7	NA
202.898	5.782	2	LowY	T3_silent.bmp	T1_quiet.bmp	4299	NA	7	NA
208.68	4.8	3	UnrN	T3_towel.bmp	T1_puppet.bmp	3299	NA	8	NA
213.48	5.299	1	HighY	T3_syrup.bmp	T0_pancakes.bmp	3799	NA	7	NA
218.779	5.299	3	UnrN	T3_upper.bmp	T1_broke.bmp	3799	NA	8	NA
224.078	5.3	2	LowY	T3_lobster.bmp	T0_crab.bmp	3799	NA	7	NA
229.378	5.799	8	FixN	Gen/_Fix_Red.bmp	Gen/_Fix_Green.bmp	4299	NA	8	NA
235.177	5.799	3	UnrN	T3_ranch.bmp	T0_chin.bmp	4299	NA	8	NA
240.976	5.783	7	FixY	Gen/_Fix_Red.bmp	Gen/_Fix_Red.bmp	4299	NA	7	NA
246.759	5.299	2	LowY	T3_razor.bmp	T0_blade.bmp	3799	NA	7	NA
252.058	4.799	8	FixN	Gen/_Fix_Red.bmp	Gen/_Fix_Green.bmp	3299	NA	8	NA
256.857	4.8	1	HighY	T3_jam.bmp	T1_jelly.bmp	3299	NA	7	NA
261.657	5.799	2	LowY	T3_smudge.bmp	T1_smear.bmp	4299	NA	7	NA
267.456	4.799	3	UnrN	T3_clerk.bmp	T2_bent.bmp	3299	NA	8	NA
272.255	4.8	2	LowY	T3_finish.bmp	T1_end.bmp	3299	NA	7	NA
277.055	4.799	6	PercN	_F3_s6.bmp	_F2_e6.bmp	3299	NA	8	NA
281.854	4.8	8	FixN	Gen/_Fix_Green.bmp	Gen/_Fix_Red.bmp	3299	NA	8	NA
286.654	5.299	5	PercY	_F3_s6.bmp	_F0_s6.bmp	3799	NA	7	NA
291.953	5.799	5	PercY	_F3_b4.bmp	_F1_b4.bmp	4299	NA	7	NA
297.752	4.8	5	PercY	_F3_e4.bmp	_F2_e4.bmp	3299	NA	7	NA
302.552	5.299	3	UnrN	T3_map.bmp	T2_hut.bmp	3799	NA	8	NA
307.851	5.799	3	UnrN	T3_scar.bmp	T1_tunnel.bmp	4299	NA	8	NA
313.65	5.333	6	PercN	_F3_b4.bmp	_F1_f4.bmp	NA	NA	8	NA
