onset	duration	trial_type	trial_name	prime_stim	targ_stim	response_time	resp	cresp	acc
1.514	5.799	6	PercN	_F3_f4.bmp	_F2_d4.bmp	1165	8	8	1
7.313	5.799	2	OnPy	T3_fall.bmp	T1_crawl.bmp	1190	7	7	1
13.112	4.8	4	OnPn	T3_gross.bmp	T1_post.bmp	1095	8	8	1
17.912	4.816	2	OnPy	T3_tense.bmp	T0_fence.bmp	1007	7	7	1
22.728	5.299	2	OnPy	T3_soup.bmp	T1_loop.bmp	1135	7	7	1
28.027	5.299	6	PercN	_F3_e4.bmp	_F0_s4.bmp	1092	8	8	1
33.326	4.8	6	PercN	_F3_b4.bmp	_F0_f4.bmp	1113	8	8	1
38.126	5.299	4	OnPn	T3_pool.bmp	T2_tooth.bmp	1145	8	8	1
43.425	5.816	4	OnPn	T3_both.bmp	T2_stroke.bmp	1062	8	8	1
49.241	4.799	1	OyPy	T3_quart.bmp	T1_wart.bmp	1166	7	7	1
54.04	5.3	7	FixY	Gen/_Fix_Red.bmp	Gen/_Fix_Red.bmp	1119	7	7	1
59.34	5.299	5	PercY	_F3_d4.bmp	_F0_d4.bmp	1219	7	7	1
64.639	5.816	5	PercY	_F3_e4.bmp	_F2_e4.bmp	1112	7	7	1
70.455	4.816	3	OyPn	T3_smooth.bmp	T0_tooth.bmp	1128	8	8	1
75.271	4.799	2	OnPy	T3_stool.bmp	T1_rule.bmp	1096	7	7	1
80.07	5.3	8	FixN	Gen/_Fix_Red.bmp	Gen/_Fix_Green.bmp	1065	8	8	1
85.37	5.282	4	OnPn	T3_flight.bmp	T0_threat.bmp	989	8	8	1
90.652	5.316	2	OnPy	T3_bluff.bmp	T2_tough.bmp	1075	7	7	1
95.968	5.8	6	PercN	_F3_s4.bmp	_F1_e4.bmp	959	8	8	1
101.768	5.799	2	OnPy	T3_halt.bmp	T0_fault.bmp	944	7	7	1
107.567	4.799	4	OnPn	T3_dried.bmp	T1_stood.bmp	1872	8	8	1
112.366	4.8	1	OyPy	T3_brow.bmp	T2_cow.bmp	1145	7	7	1
117.166	5.799	1	OyPy	T3_goat.bmp	T1_float.bmp	1026	7	7	1
122.965	4.816	1	OyPy	T3_glide.bmp	T2_bride.bmp	1098	7	7	1
127.781	5.299	7	FixY	Gen/_Fix_Red.bmp	Gen/_Fix_Red.bmp	866	7	7	1
133.08	4.8	8	FixN	Gen/_Fix_Red.bmp	Gen/_Fix_Green.bmp	1111	8	8	1
137.88	5.799	3	OyPn	T3_plead.bmp	T2_spread.bmp	1208	8	8	1
143.679	4.799	5	PercY	_F3_d6.bmp	_F1_d6.bmp	1280	7	7	1
148.478	5.316	2	OnPy	T3_roast.bmp	T2_ghost.bmp	881	7	7	1
153.794	4.8	5	PercY	_F3_e6.bmp	_F2_e6.bmp	1029	7	7	1
158.594	5.799	8	FixN	Gen/_Fix_Red.bmp	Gen/_Fix_Green.bmp	1022	8	8	1
164.393	5.799	2	OnPy	T3_odd.bmp	T0_rod.bmp	1150	7	7	1
170.192	5.299	1	OyPy	T3_spoon.bmp	T1_noon.bmp	1103	7	7	1
175.491	5.816	7	FixY	Gen/_Fix_Green.bmp	Gen/_Fix_Green.bmp	660	7	7	1
181.307	4.8	7	FixY	Gen/_Fix_Green.bmp	Gen/_Fix_Green.bmp	1380	7	7	1
186.107	4.799	7	FixY	Gen/_Fix_Red.bmp	Gen/_Fix_Red.bmp	1148	7	7	1
190.906	5.799	8	FixN	Gen/_Fix_Green.bmp	Gen/_Fix_Red.bmp	1365	8	8	1
196.705	4.8	3	OyPn	T3_breath.bmp	T0_wreath.bmp	1366	8	8	1
201.505	5.332	1	OyPy	T3_neat.bmp	T2_wheat.bmp	1158	7	7	1
206.837	5.8	3	OyPn	T3_mouth.bmp	T1_youth.bmp	794	8	8	1
212.637	5.782	1	OyPy	T3_toss.bmp	T0_moss.bmp	1443	7	7	1
218.419	5.299	5	PercY	_F3_f6.bmp	_F1_f6.bmp	1572	7	7	1
223.718	5.8	4	OnPn	T3_rule.bmp	T0_blur.bmp	1041	8	8	1
229.518	5.316	3	OyPn	T3_tomb.bmp	T2_comb.bmp	993	8	8	1
234.834	5.799	5	PercY	_F3_o6.bmp	_F0_o6.bmp	2597	8	7	0
240.633	4.799	4	OnPn	T3_june.bmp	T1_loop.bmp	1062	8	8	1
245.432	5.3	2	OnPy	T3_warm.bmp	T2_form.bmp	1007	7	7	1
250.732	5.316	4	OnPn	T3_rum.bmp	T2_touch.bmp	1243	8	8	1
256.048	4.799	3	OyPn	T3_gross.bmp	T1_moss.bmp	1000	8	8	1
260.847	4.799	4	OnPn	T3_glow.bmp	T0_stove.bmp	1632	7	8	0
265.646	5.8	4	OnPn	T3_wheel.bmp	T2_sneak.bmp	865	8	8	1
271.446	5.299	3	OyPn	T3_cow.bmp	T0_glow.bmp	1138	7	8	0
276.745	5.316	1	OyPy	T3_pile.bmp	T1_mile.bmp	1014	7	7	1
282.061	5.799	2	OnPy	T3_cheek.bmp	T1_sneak.bmp	1058	7	7	1
287.86	5.299	4	OnPn	T3_youth.bmp	T0_hint.bmp	907	8	8	1
293.159	4.8	2	OnPy	T3_thief.bmp	T0_beef.bmp	1000	7	7	1
297.959	5.299	8	FixN	Gen/_Fix_Green.bmp	Gen/_Fix_Red.bmp	656	8	8	1
303.258	5.816	3	OyPn	T3_swarm.bmp	T2_harm.bmp	1061	8	8	1
309.074	4.799	6	PercN	_F3_o6.bmp	_F2_b6.bmp	1125	8	8	1
313.873	5.3	3	OyPn	T3_both.bmp	T1_cloth.bmp	1446	8	8	1
319.173	4.799	8	FixN	Gen/_Fix_Green.bmp	Gen/_Fix_Red.bmp	962	8	8	1
323.972	5.799	4	OnPn	T3_cream.bmp	T1_swarm.bmp	939	8	8	1
329.771	5.333	3	OyPn	T3_ford.bmp	T0_word.bmp	1212	8	8	1
335.104	5.299	1	OyPy	T3_vase.bmp	T2_chase.bmp	1079	7	7	1
340.403	5.3	6	PercN	_F3_f6.bmp	_F1_d6.bmp	1028	8	8	1
345.703	5.782	1	OyPy	T3_flood.bmp	T0_blood.bmp	832	7	7	1
351.485	4.8	2	OnPy	T3_quart.bmp	T2_port.bmp	1146	8	7	0
356.285	4.816	3	OyPn	T3_swap.bmp	T1_gap.bmp	795	8	8	1
361.101	4.799	1	OyPy	T3_frost.bmp	T0_cost.bmp	1170	7	7	1
365.9	5.799	1	OyPy	T3_harm.bmp	T0_farm.bmp	1323	7	7	1
371.699	5.8	3	OyPn	T3_scratch.bmp	T2_watch.bmp	1060	8	8	1
377.499	5.332	7	FixY	Gen/_Fix_Green.bmp	Gen/_Fix_Green.bmp	909	7	7	1
