onset	duration	trial_type	trial_name	prime_stim	targ_stim	response_time	resp	cresp	acc
1.509	5.8	6	PercN	_F3_f4.bmp	_F2_d4.bmp	850	8	8	1
7.309	5.816	2	OnPy	T3_fall.bmp	T1_crawl.bmp	980	8	7	0
13.125	4.799	4	OnPn	T3_gross.bmp	T1_post.bmp	908	7	8	0
17.924	4.799	2	OnPy	T3_tense.bmp	T0_fence.bmp	1468	7	7	1
22.723	5.3	2	OnPy	T3_soup.bmp	T1_loop.bmp	597	8	7	0
28.023	5.299	6	PercN	_F3_e4.bmp	_F0_s4.bmp	570	7	8	0
33.322	4.816	6	PercN	_F3_b4.bmp	_F0_f4.bmp	1030	7	8	0
38.138	5.299	4	OnPn	T3_pool.bmp	T2_tooth.bmp	918	7	8	0
43.437	5.816	4	OnPn	T3_both.bmp	T2_stroke.bmp	1067	8	8	1
49.253	4.8	1	OyPy	T3_quart.bmp	T1_wart.bmp	819	7	7	1
54.053	5.299	7	FixY	Gen/_Fix_Red.bmp	Gen/_Fix_Red.bmp	1307	7	7	1
59.352	5.316	5	PercY	_F3_d4.bmp	_F0_d4.bmp	929	7	7	1
64.668	5.783	5	PercY	_F3_e4.bmp	_F2_e4.bmp	2325	7	7	1
70.451	4.799	3	OyPn	T3_smooth.bmp	T0_tooth.bmp	3302	n/a	8	n/a
75.25	4.799	2	OnPy	T3_stool.bmp	T1_rule.bmp	3094	7	7	1
80.049	5.3	8	FixN	Gen/_Fix_Red.bmp	Gen/_Fix_Green.bmp	887	8	8	1
85.349	5.316	4	OnPn	T3_flight.bmp	T0_threat.bmp	876	8	8	1
90.665	5.299	2	OnPy	T3_bluff.bmp	T2_tough.bmp	1103	7	7	1
95.964	5.799	6	PercN	_F3_s4.bmp	_F1_e4.bmp	1708	8	8	1
101.763	5.799	2	OnPy	T3_halt.bmp	T0_fault.bmp	893	7	7	1
107.562	4.8	4	OnPn	T3_dried.bmp	T1_stood.bmp	166	8	8	1
112.362	4.816	1	OyPy	T3_brow.bmp	T2_cow.bmp	190	8	7	0
117.178	5.799	1	OyPy	T3_goat.bmp	T1_float.bmp	342	7	7	1
122.977	4.8	1	OyPy	T3_glide.bmp	T2_bride.bmp	3302	n/a	7	n/a
127.777	5.299	7	FixY	Gen/_Fix_Red.bmp	Gen/_Fix_Red.bmp	782	7	7	1
133.076	4.8	8	FixN	Gen/_Fix_Red.bmp	Gen/_Fix_Green.bmp	3302	n/a	8	n/a
137.876	5.815	3	OyPn	T3_plead.bmp	T2_spread.bmp	1181	7	8	0
143.691	4.8	5	PercY	_F3_d6.bmp	_F1_d6.bmp	789	7	7	1
148.491	5.299	2	OnPy	T3_roast.bmp	T2_ghost.bmp	3803	n/a	7	n/a
153.79	4.799	5	PercY	_F3_e6.bmp	_F2_e6.bmp	3302	n/a	7	n/a
158.589	5.8	8	FixN	Gen/_Fix_Red.bmp	Gen/_Fix_Green.bmp	795	8	8	1
164.389	5.799	2	OnPy	T3_odd.bmp	T0_rod.bmp	1132	8	7	0
170.188	5.316	1	OyPy	T3_spoon.bmp	T1_noon.bmp	2468	8	7	0
175.504	5.816	7	FixY	Gen/_Fix_Green.bmp	Gen/_Fix_Green.bmp	4303	n/a	7	n/a
181.32	4.799	7	FixY	Gen/_Fix_Green.bmp	Gen/_Fix_Green.bmp	3302	n/a	7	n/a
186.119	4.783	7	FixY	Gen/_Fix_Red.bmp	Gen/_Fix_Red.bmp	593	7	7	1
190.902	5.799	8	FixN	Gen/_Fix_Green.bmp	Gen/_Fix_Red.bmp	4303	n/a	8	n/a
196.701	4.816	3	OyPn	T3_breath.bmp	T0_wreath.bmp	867	8	8	1
201.517	5.299	1	OyPy	T3_neat.bmp	T2_wheat.bmp	1291	7	7	1
206.816	5.8	3	OyPn	T3_mouth.bmp	T1_youth.bmp	1112	8	8	1
212.616	5.799	1	OyPy	T3_toss.bmp	T0_moss.bmp	688	7	7	1
218.415	5.316	5	PercY	_F3_f6.bmp	_F1_f6.bmp	1233	7	7	1
223.731	5.799	4	OnPn	T3_rule.bmp	T0_blur.bmp	741	7	8	0
229.53	5.3	3	OyPn	T3_tomb.bmp	T2_comb.bmp	934	8	8	1
234.83	5.799	5	PercY	_F3_o6.bmp	_F0_o6.bmp	539	7	7	1
240.629	4.799	4	OnPn	T3_june.bmp	T1_loop.bmp	531	7	8	0
245.428	5.316	2	OnPy	T3_warm.bmp	T2_form.bmp	1444	8	7	0
250.744	5.299	4	OnPn	T3_rum.bmp	T2_touch.bmp	3803	n/a	8	n/a
256.043	4.8	3	OyPn	T3_gross.bmp	T1_moss.bmp	3302	n/a	8	n/a
260.843	4.799	4	OnPn	T3_glow.bmp	T0_stove.bmp	1045	7	8	0
265.642	5.8	4	OnPn	T3_wheel.bmp	T2_sneak.bmp	4303	n/a	8	n/a
271.442	5.316	3	OyPn	T3_cow.bmp	T0_glow.bmp	495	7	8	0
276.758	5.299	1	OyPy	T3_pile.bmp	T1_mile.bmp	1451	7	7	1
282.057	5.799	2	OnPy	T3_cheek.bmp	T1_sneak.bmp	1031	7	7	1
287.856	5.299	4	OnPn	T3_youth.bmp	T0_hint.bmp	1640	8	8	1
293.155	4.8	2	OnPy	T3_thief.bmp	T0_beef.bmp	757	8	7	0
297.955	5.316	8	FixN	Gen/_Fix_Green.bmp	Gen/_Fix_Red.bmp	773	8	8	1
303.271	5.799	3	OyPn	T3_swarm.bmp	T2_harm.bmp	1025	7	8	0
309.07	4.816	6	PercN	_F3_o6.bmp	_F2_b6.bmp	761	8	8	1
313.886	5.299	3	OyPn	T3_both.bmp	T1_cloth.bmp	3803	n/a	8	n/a
319.185	4.783	8	FixN	Gen/_Fix_Green.bmp	Gen/_Fix_Red.bmp	3302	n/a	8	n/a
323.968	5.816	4	OnPn	T3_cream.bmp	T1_swarm.bmp	3240	8	8	1
329.784	5.299	3	OyPn	T3_ford.bmp	T0_word.bmp	344	7	8	0
335.083	5.3	1	OyPy	T3_vase.bmp	T2_chase.bmp	1173	7	7	1
340.383	5.299	6	PercN	_F3_f6.bmp	_F1_d6.bmp	1113	8	8	1
345.682	5.799	1	OyPy	T3_flood.bmp	T0_blood.bmp	1246	7	7	1
351.481	4.816	2	OnPy	T3_quart.bmp	T2_port.bmp	1207	7	7	1
356.297	4.8	3	OyPn	T3_swap.bmp	T1_gap.bmp	991	8	8	1
361.097	4.799	1	OyPy	T3_frost.bmp	T0_cost.bmp	727	7	7	1
365.896	5.799	1	OyPy	T3_harm.bmp	T0_farm.bmp	840	8	7	0
371.695	5.8	3	OyPn	T3_scratch.bmp	T2_watch.bmp	1017	7	8	0
377.495	5.366	7	FixY	Gen/_Fix_Green.bmp	Gen/_Fix_Green.bmp	1098	8	7	0
