onset	duration	trial_type	trial_name	prime_stim	targ_stim	response_time	resp	cresp	acc
1.497	5.8	6	PercN	_F3_f4.bmp	_F2_d4.bmp	1143	8	8	1
7.297	5.799	2	OnPy	T3_fall.bmp	T1_crawl.bmp	1328	7	7	1
13.096	4.816	4	OnPn	T3_gross.bmp	T1_post.bmp	1280	8	8	1
17.912	4.799	2	OnPy	T3_tense.bmp	T0_fence.bmp	1064	7	7	1
22.711	5.3	2	OnPy	T3_soup.bmp	T1_loop.bmp	1097	7	7	1
28.011	5.299	6	PercN	_F3_e4.bmp	_F0_s4.bmp	1102	8	8	1
33.31	4.799	6	PercN	_F3_b4.bmp	_F0_f4.bmp	1146	8	8	1
38.109	5.316	4	OnPn	T3_pool.bmp	T2_tooth.bmp	1371	8	8	1
43.425	5.816	4	OnPn	T3_both.bmp	T2_stroke.bmp	1399	8	8	1
49.241	4.8	1	OyPy	T3_quart.bmp	T1_wart.bmp	1039	7	7	1
54.041	5.299	7	FixY	Gen/_Fix_Red.bmp	Gen/_Fix_Red.bmp	1392	7	7	1
59.34	5.299	5	PercY	_F3_d4.bmp	_F0_d4.bmp	1204	7	7	1
64.639	5.816	5	PercY	_F3_e4.bmp	_F2_e4.bmp	1161	7	7	1
70.455	4.8	3	OyPn	T3_smooth.bmp	T0_tooth.bmp	1073	8	8	1
75.255	4.799	2	OnPy	T3_stool.bmp	T1_rule.bmp	1170	7	7	1
80.054	5.299	8	FixN	Gen/_Fix_Red.bmp	Gen/_Fix_Green.bmp	1202	8	8	1
85.353	5.3	4	OnPn	T3_flight.bmp	T0_threat.bmp	1103	8	8	1
90.653	5.316	2	OnPy	T3_bluff.bmp	T2_tough.bmp	1212	7	7	1
95.969	5.799	6	PercN	_F3_s4.bmp	_F1_e4.bmp	1160	8	8	1
101.768	5.799	2	OnPy	T3_halt.bmp	T0_fault.bmp	1144	7	7	1
107.567	4.799	4	OnPn	T3_dried.bmp	T1_stood.bmp	1209	8	8	1
112.366	4.8	1	OyPy	T3_brow.bmp	T2_cow.bmp	1146	7	7	1
117.166	5.816	1	OyPy	T3_goat.bmp	T1_float.bmp	1202	7	7	1
122.982	4.782	1	OyPy	T3_glide.bmp	T2_bride.bmp	1171	7	7	1
127.764	5.3	7	FixY	Gen/_Fix_Red.bmp	Gen/_Fix_Red.bmp	1180	7	7	1
133.064	4.799	8	FixN	Gen/_Fix_Red.bmp	Gen/_Fix_Green.bmp	1136	8	8	1
137.863	5.799	3	OyPn	T3_plead.bmp	T2_spread.bmp	1409	8	8	1
143.662	4.8	5	PercY	_F3_d6.bmp	_F1_d6.bmp	1218	8	7	0
148.462	5.316	2	OnPy	T3_roast.bmp	T2_ghost.bmp	1282	7	7	1
153.778	4.799	5	PercY	_F3_e6.bmp	_F2_e6.bmp	1190	7	7	1
158.577	5.799	8	FixN	Gen/_Fix_Red.bmp	Gen/_Fix_Green.bmp	1423	8	8	1
164.376	5.8	2	OnPy	T3_odd.bmp	T0_rod.bmp	1272	7	7	1
170.176	5.316	1	OyPy	T3_spoon.bmp	T1_noon.bmp	1104	7	7	1
175.492	5.816	7	FixY	Gen/_Fix_Green.bmp	Gen/_Fix_Green.bmp	1188	7	7	1
181.308	4.799	7	FixY	Gen/_Fix_Green.bmp	Gen/_Fix_Green.bmp	1141	7	7	1
186.107	4.799	7	FixY	Gen/_Fix_Red.bmp	Gen/_Fix_Red.bmp	1045	7	7	1
190.906	5.8	8	FixN	Gen/_Fix_Green.bmp	Gen/_Fix_Red.bmp	1182	8	8	1
196.706	4.799	3	OyPn	T3_breath.bmp	T0_wreath.bmp	1159	8	8	1
201.505	5.316	1	OyPy	T3_neat.bmp	T2_wheat.bmp	1191	7	7	1
206.821	5.799	3	OyPn	T3_mouth.bmp	T1_youth.bmp	1067	8	8	1
212.62	5.799	1	OyPy	T3_toss.bmp	T0_moss.bmp	1204	7	7	1
218.419	5.3	5	PercY	_F3_f6.bmp	_F1_f6.bmp	1141	7	7	1
223.719	5.816	4	OnPn	T3_rule.bmp	T0_blur.bmp	1041	8	8	1
229.535	5.299	3	OyPn	T3_tomb.bmp	T2_comb.bmp	1258	8	8	1
234.834	5.799	5	PercY	_F3_o6.bmp	_F0_o6.bmp	1166	7	7	1
240.633	4.8	4	OnPn	T3_june.bmp	T1_loop.bmp	1175	8	8	1
245.433	5.299	2	OnPy	T3_warm.bmp	T2_form.bmp	1303	7	7	1
250.732	5.299	4	OnPn	T3_rum.bmp	T2_touch.bmp	1124	8	8	1
256.031	4.8	3	OyPn	T3_gross.bmp	T1_moss.bmp	1185	8	8	1
260.831	4.799	4	OnPn	T3_glow.bmp	T0_stove.bmp	1010	8	8	1
265.63	5.799	4	OnPn	T3_wheel.bmp	T2_sneak.bmp	1146	8	8	1
271.429	5.3	3	OyPn	T3_cow.bmp	T0_glow.bmp	1475	8	8	1
276.729	5.316	1	OyPy	T3_pile.bmp	T1_mile.bmp	1080	7	7	1
282.045	5.799	2	OnPy	T3_cheek.bmp	T1_sneak.bmp	1132	7	7	1
287.844	5.299	4	OnPn	T3_youth.bmp	T0_hint.bmp	1204	8	8	1
293.143	4.799	2	OnPy	T3_thief.bmp	T0_beef.bmp	1249	7	7	1
297.942	5.317	8	FixN	Gen/_Fix_Green.bmp	Gen/_Fix_Red.bmp	1042	8	8	1
303.259	5.815	3	OyPn	T3_swarm.bmp	T2_harm.bmp	1950	8	8	1
309.074	4.8	6	PercN	_F3_o6.bmp	_F2_b6.bmp	1150	8	8	1
313.874	5.299	3	OyPn	T3_both.bmp	T1_cloth.bmp	1342	8	8	1
319.173	4.8	8	FixN	Gen/_Fix_Green.bmp	Gen/_Fix_Red.bmp	1171	8	8	1
323.973	5.799	4	OnPn	T3_cream.bmp	T1_swarm.bmp	1244	8	8	1
329.772	5.316	3	OyPn	T3_ford.bmp	T0_word.bmp	1404	8	8	1
335.088	5.299	1	OyPy	T3_vase.bmp	T2_chase.bmp	1152	7	7	1
340.387	5.299	6	PercN	_F3_f6.bmp	_F1_d6.bmp	1149	8	8	1
345.686	5.8	1	OyPy	T3_flood.bmp	T0_blood.bmp	1154	7	7	1
351.486	4.799	2	OnPy	T3_quart.bmp	T2_port.bmp	1242	7	7	1
356.285	4.816	3	OyPn	T3_swap.bmp	T1_gap.bmp	1195	8	8	1
361.101	4.8	1	OyPy	T3_frost.bmp	T0_cost.bmp	1099	7	7	1
365.901	5.799	1	OyPy	T3_harm.bmp	T0_farm.bmp	1188	7	7	1
371.7	5.799	3	OyPn	T3_scratch.bmp	T2_watch.bmp	1716	8	8	1
377.499	5.349	7	FixY	Gen/_Fix_Green.bmp	Gen/_Fix_Green.bmp	1477	7	7	1
