onset	duration	trial_type	trial_name	prime_stim	targ_stim	response_time	resp	cresp	acc
1.51	4.799	3	OyPn	T3_post.bmp	T1_cost.bmp	1254	8	8	1
6.309	5.316	5	PercY	_F3_o4.bmp	_F2_o4.bmp	959	7	7	1
11.625	4.799	2	OnPy	T3_rum.bmp	T1_numb.bmp	1379	7	7	1
16.424	5.8	7	FixY	Gen/_Fix_Green.bmp	Gen/_Fix_Green.bmp	540	7	7	1
22.224	4.799	6	PercN	_F3_s6.bmp	_F0_e6.bmp	1076	8	8	1
27.023	4.799	1	OyPy	T3_fought.bmp	T1_sought.bmp	1477	7	7	1
31.822	4.8	1	OyPy	T3_scheme.bmp	T2_theme.bmp	782	7	7	1
36.622	4.816	5	PercY	_F3_f4.bmp	_F0_f4.bmp	654	7	7	1
41.438	5.299	1	OyPy	T3_stool.bmp	T0_fool.bmp	710	7	7	1
46.737	5.3	1	OyPy	T3_soak.bmp	T0_oak.bmp	1891	7	7	1
52.037	5.299	3	OyPn	T3_threat.bmp	T1_wheat.bmp	1144	8	8	1
57.336	4.799	1	OyPy	T3_thread.bmp	T0_spread.bmp	876	7	7	1
62.135	5.799	2	OnPy	T3_pile.bmp	T1_trial.bmp	1461	7	7	1
67.934	5.816	4	OnPn	T3_swap.bmp	T2_watch.bmp	3806	8	8	1
73.75	5.8	8	FixN	Gen/_Fix_Green.bmp	Gen/_Fix_Red.bmp	1406	8	8	1
79.55	5.316	4	OnPn	T3_tough.bmp	T1_dull.bmp	774	8	8	1
84.866	5.799	6	PercN	_F3_o4.bmp	_F2_b4.bmp	851	8	8	1
90.665	5.799	1	OyPy	T3_sweep.bmp	T0_creep.bmp	963	7	7	1
96.464	5.799	6	PercN	_F3_d6.bmp	_F1_o6.bmp	901	8	8	1
102.263	4.8	8	FixN	Gen/_Fix_Green.bmp	Gen/_Fix_Red.bmp	693	8	8	1
107.063	4.799	2	OnPy	T3_stroke.bmp	T1_soak.bmp	1389	7	7	1
111.862	5.3	4	OnPn	T3_trial.bmp	T0_fall.bmp	950	8	8	1
117.162	5.799	5	PercY	_F3_s6.bmp	_F0_s6.bmp	763	7	7	1
122.961	4.816	7	FixY	Gen/_Fix_Green.bmp	Gen/_Fix_Green.bmp	1147	7	7	1
127.777	4.799	8	FixN	Gen/_Fix_Red.bmp	Gen/_Fix_Green.bmp	955	8	8	1
132.576	5.299	7	FixY	Gen/_Fix_Red.bmp	Gen/_Fix_Red.bmp	804	7	7	1
137.875	4.8	1	OyPy	T3_beef.bmp	T1_reef.bmp	1593	7	7	1
142.675	5.799	3	OyPn	T3_wart.bmp	T1_smart.bmp	889	8	8	1
148.474	5.799	3	OyPn	T3_dose.bmp	T0_pose.bmp	2186	7	8	0
154.273	4.816	3	OyPn	T3_touch.bmp	T1_couch.bmp	1298	8	8	1
159.089	4.8	6	PercN	_F3_e6.bmp	_F0_s6.bmp	979	8	8	1
163.889	5.799	8	FixN	Gen/_Fix_Green.bmp	Gen/_Fix_Red.bmp	947	8	8	1
169.688	5.809	7	FixY	Gen/_Fix_Green.bmp	Gen/_Fix_Green.bmp	844	7	7	1
175.497	5.299	8	FixN	Gen/_Fix_Red.bmp	Gen/_Fix_Green.bmp	1036	8	8	1
180.796	4.799	7	FixY	Gen/_Fix_Red.bmp	Gen/_Fix_Red.bmp	1320	7	7	1
185.595	5.3	4	OnPn	T3_port.bmp	T1_warm.bmp	2208	8	8	1
190.895	5.799	2	OnPy	T3_june.bmp	T2_noon.bmp	2014	8	7	0
196.694	4.816	4	OnPn	T3_wreath.bmp	T0_leap.bmp	973	8	8	1
201.51	4.799	5	PercY	_F3_b6.bmp	_F2_b6.bmp	918	7	7	1
206.309	5.3	3	OyPn	T3_glove.bmp	T0_stove.bmp	1143	8	8	1
211.609	5.799	1	OyPy	T3_numb.bmp	T1_crumb.bmp	1291	7	7	1
217.408	4.799	3	OyPn	T3_stood.bmp	T2_flood.bmp	883	8	8	1
222.207	5.3	5	PercY	_F3_s4.bmp	_F1_s4.bmp	1420	7	7	1
227.507	5.815	4	OnPn	T3_smart.bmp	T1_drought.bmp	1233	8	8	1
233.322	5.3	2	OnPy	T3_stir.bmp	T2_blur.bmp	1233	7	7	1
238.622	5.299	8	FixN	Gen/_Fix_Red.bmp	Gen/_Fix_Green.bmp	1077	8	8	1
243.921	5.299	7	FixY	Gen/_Fix_Red.bmp	Gen/_Fix_Red.bmp	1435	7	7	1
249.22	5.8	3	OyPn	T3_pool.bmp	T0_wool.bmp	1439	8	8	1
255.02	5.316	3	OyPn	T3_fought.bmp	T2_drought.bmp	1567	7	8	0
260.336	4.799	2	OnPy	T3_flight.bmp	T1_spite.bmp	3302	NA	7	NA
265.135	5.299	2	OnPy	T3_scheme.bmp	T0_cream.bmp	1868	7	7	1
270.434	5.3	6	PercN	_F3_b6.bmp	_F2_f6.bmp	1202	8	8	1
275.734	5.799	4	OnPn	T3_ghost.bmp	T0_pose.bmp	2830	8	8	1
281.533	4.799	4	OnPn	T3_grace.bmp	T1_fence.bmp	1079	8	8	1
286.332	4.833	3	OyPn	T3_dull.bmp	T2_bull.bmp	1430	7	8	0
291.165	4.799	4	OnPn	T3_ford.bmp	T2_rod.bmp	1934	8	8	1
295.964	5.283	1	OyPy	T3_strap.bmp	T2_gap.bmp	1199	7	7	1
301.247	5.299	4	OnPn	T3_stamp.bmp	T2_tomb.bmp	1325	8	8	1
306.546	5.3	2	OnPy	T3_wheel.bmp	T0_deal.bmp	1874	8	7	0
311.846	5.299	2	OnPy	T3_leap.bmp	T2_sweep.bmp	3802	NA	7	NA
317.145	4.799	4	OnPn	T3_fault.bmp	T2_note.bmp	2258	8	8	1
321.944	5.816	1	OyPy	T3_bull.bmp	T2_full.bmp	1059	7	7	1
327.76	5.799	2	OnPy	T3_chase.bmp	T2_grace.bmp	1612	7	7	1
333.559	4.8	2	OnPy	T3_float.bmp	T0_note.bmp	2309	8	7	0
338.359	5.799	2	OnPy	T3_bride.bmp	T0_dried.bmp	796	7	7	1
344.158	5.816	4	OnPn	T3_thief.bmp	T0_plead.bmp	4303	NA	8	NA
349.974	5.299	1	OyPy	T3_bluff.bmp	T2_puff.bmp	974	7	7	1
355.273	5.8	5	PercY	_F3_b4.bmp	_F1_b4.bmp	834	7	7	1
361.073	5.799	1	OyPy	T3_shove.bmp	T1_glove.bmp	1540	7	7	1
366.872	5.299	6	PercN	_F3_d4.bmp	_F1_o4.bmp	3802	NA	8	NA
372.171	5.816	3	OyPn	T3_stamp.bmp	T2_swamp.bmp	1001	8	8	1
377.987	4.833	3	OyPn	T3_pint.bmp	T0_hint.bmp	776	8	8	1
