onset	duration	trial_type	trial_name	prime_stim	targ_stim	response_time	resp	cresp	acc
1.505	4.799	3	UnrN	T3_able.bmp	T1_party.bmp	1351	8	8	1
6.304	5.3	6	PercN	_F3_e6.bmp	_F2_s6.bmp	1280	8	8	1
11.604	4.799	2	LowY	T3_seafood.bmp	T2_shrimp.bmp	1556	7	7	1
16.403	4.799	6	PercN	_F3_d6.bmp	_F0_o6.bmp	1229	8	8	1
21.202	5.816	5	PercY	_F3_f6.bmp	_F0_f6.bmp	2454	7	7	1
27.018	5.3	6	PercN	_F3_e4.bmp	_F0_s4.bmp	1718	8	8	1
32.318	5.799	8	FixN	Gen/_Fix_Red.bmp	Gen/_Fix_Green.bmp	2034	8	8	1
38.117	5.283	2	LowY	T3_throw.bmp	T1_catch.bmp	2003	8	7	0
43.4	5.799	2	LowY	T3_save.bmp	T0_keep.bmp	2313	7	7	1
49.199	4.799	7	FixY	Gen/_Fix_Green.bmp	Gen/_Fix_Green.bmp	1313	7	7	1
53.998	5.799	3	UnrN	T3_jewel.bmp	T0_moan.bmp	1490	8	8	1
59.797	4.8	1	HighY	T3_washer.bmp	T1_dryer.bmp	3473	7	7	1
64.597	4.799	1	HighY	T3_sock.bmp	T0_shoe.bmp	1675	7	7	1
69.396	5.8	1	HighY	T3_touch.bmp	T2_feel.bmp	1708	7	7	1
75.196	5.299	7	FixY	Gen/_Fix_Green.bmp	Gen/_Fix_Green.bmp	1613	7	7	1
80.495	4.799	2	LowY	T3_glue.bmp	T2_sticky.bmp	2129	7	7	1
85.294	5.799	1	HighY	T3_yell.bmp	T0_scream.bmp	1914	7	7	1
91.093	5.3	2	LowY	T3_temper.bmp	T0_tantrum.bmp	3203	7	7	1
96.393	5.799	2	LowY	T3_cheese.bmp	T2_cracker.bmp	3271	8	7	0
102.192	5.299	3	UnrN	T3_rubber.bmp	T2_straw.bmp	1416	8	8	1
107.491	5.8	7	FixY	Gen/_Fix_Red.bmp	Gen/_Fix_Red.bmp	1165	7	7	1
113.291	4.799	5	PercY	_F3_o6.bmp	_F1_o6.bmp	829	8	7	0
118.09	5.299	7	FixY	Gen/_Fix_Red.bmp	Gen/_Fix_Red.bmp	1022	7	7	1
123.389	5.3	1	HighY	T3_winner.bmp	T1_loser.bmp	3799	NA	7	NA
128.689	4.799	1	HighY	T3_start.bmp	T2_finish.bmp	2079	7	7	1
133.488	4.799	2	LowY	T3_children.bmp	T2_kids.bmp	2344	8	7	0
138.287	5.3	1	HighY	T3_question.bmp	T0_answer.bmp	2433	8	7	0
143.587	4.799	3	UnrN	T3_stream.bmp	T0_rear.bmp	1717	8	8	1
148.386	4.8	7	FixY	Gen/_Fix_Green.bmp	Gen/_Fix_Green.bmp	1278	7	7	1
153.186	5.316	3	UnrN	T3_hearing.bmp	T0_bottle.bmp	1863	8	8	1
158.502	5.299	1	HighY	T3_above.bmp	T2_below.bmp	1571	8	7	0
163.801	5.299	8	FixN	Gen/_Fix_Green.bmp	Gen/_Fix_Red.bmp	1159	8	8	1
169.1	5.783	1	HighY	T3_circus.bmp	T2_clown.bmp	2940	7	7	1
174.883	5.299	5	PercY	_F3_f4.bmp	_F2_f4.bmp	1741	7	7	1
180.182	5.799	3	UnrN	T3_rich.bmp	T2_pointed.bmp	1106	8	8	1
185.981	5.8	6	PercN	_F3_s4.bmp	_F1_e4.bmp	1443	8	8	1
191.781	5.299	8	FixN	Gen/_Fix_Green.bmp	Gen/_Fix_Red.bmp	1412	8	8	1
197.08	5.799	1	HighY	T3_mitten.bmp	T1_glove.bmp	2848	7	7	1
202.879	5.799	2	LowY	T3_silent.bmp	T1_quiet.bmp	1201	7	7	1
208.678	4.8	3	UnrN	T3_towel.bmp	T1_puppet.bmp	3424	7	8	0
213.478	5.299	1	HighY	T3_syrup.bmp	T0_pancakes.bmp	2522	8	7	0
218.777	5.299	3	UnrN	T3_upper.bmp	T1_broke.bmp	3727	7	8	0
224.076	5.3	2	LowY	T3_lobster.bmp	T0_crab.bmp	2988	7	7	1
229.376	5.799	8	FixN	Gen/_Fix_Red.bmp	Gen/_Fix_Green.bmp	4299	NA	8	NA
235.175	5.799	3	UnrN	T3_ranch.bmp	T0_chin.bmp	1321	8	8	1
240.974	5.8	7	FixY	Gen/_Fix_Red.bmp	Gen/_Fix_Red.bmp	1194	7	7	1
246.774	5.299	2	LowY	T3_razor.bmp	T0_blade.bmp	2299	7	7	1
252.073	4.799	8	FixN	Gen/_Fix_Red.bmp	Gen/_Fix_Green.bmp	2239	8	8	1
256.872	4.8	1	HighY	T3_jam.bmp	T1_jelly.bmp	2048	8	7	0
261.672	5.799	2	LowY	T3_smudge.bmp	T1_smear.bmp	1432	7	7	1
267.471	4.799	3	UnrN	T3_clerk.bmp	T2_bent.bmp	1505	8	8	1
272.27	4.783	2	LowY	T3_finish.bmp	T1_end.bmp	2426	7	7	1
277.053	4.799	6	PercN	_F3_s6.bmp	_F2_e6.bmp	1915	8	8	1
281.852	4.816	8	FixN	Gen/_Fix_Green.bmp	Gen/_Fix_Red.bmp	1148	8	8	1
286.668	5.3	5	PercY	_F3_s6.bmp	_F0_s6.bmp	1468	7	7	1
291.968	5.799	5	PercY	_F3_b4.bmp	_F1_b4.bmp	1040	8	7	0
297.767	4.783	5	PercY	_F3_e4.bmp	_F2_e4.bmp	738	7	7	1
302.55	5.299	3	UnrN	T3_map.bmp	T2_hut.bmp	1530	8	8	1
307.849	5.799	3	UnrN	T3_scar.bmp	T1_tunnel.bmp	2663	8	8	1
313.648	5.333	6	PercN	_F3_b4.bmp	_F1_f4.bmp	968	8	8	1
