onset	duration	trial_type	trial_name	prime_stim	targ_stim	response_time	resp	cresp	acc
1.518	4.799	3	OyPn	T3_post.bmp	T1_cost.bmp	1330	8	8	1
6.317	5.299	5	PercY	_F3_o4.bmp	_F2_o4.bmp	1107	7	7	1
11.616	4.8	2	OnPy	T3_rum.bmp	T1_numb.bmp	1664	7	7	1
16.416	5.799	7	FixY	Gen/_Fix_Green.bmp	Gen/_Fix_Green.bmp	1128	7	7	1
22.215	4.816	6	PercN	_F3_s6.bmp	_F0_e6.bmp	1169	8	8	1
27.031	4.799	1	OyPy	T3_fought.bmp	T1_sought.bmp	1225	7	7	1
31.83	4.8	1	OyPy	T3_scheme.bmp	T2_theme.bmp	1242	7	7	1
36.63	4.799	5	PercY	_F3_f4.bmp	_F0_f4.bmp	1210	7	7	1
41.429	5.3	1	OyPy	T3_stool.bmp	T0_fool.bmp	1763	7	7	1
46.729	5.299	1	OyPy	T3_soak.bmp	T0_oak.bmp	1176	7	7	1
52.028	5.316	3	OyPn	T3_threat.bmp	T1_wheat.bmp	956	8	8	1
57.344	4.799	1	OyPy	T3_thread.bmp	T0_spread.bmp	1248	7	7	1
62.143	5.799	2	OnPy	T3_pile.bmp	T1_trial.bmp	1433	7	7	1
67.942	5.8	4	OnPn	T3_swap.bmp	T2_watch.bmp	1154	8	8	1
73.742	5.799	8	FixN	Gen/_Fix_Green.bmp	Gen/_Fix_Red.bmp	1074	8	8	1
79.541	5.333	4	OnPn	T3_tough.bmp	T1_dull.bmp	1163	8	8	1
84.874	5.799	6	PercN	_F3_o4.bmp	_F2_b4.bmp	1214	8	8	1
90.673	5.782	1	OyPy	T3_sweep.bmp	T0_creep.bmp	943	7	7	1
96.455	5.8	6	PercN	_F3_d6.bmp	_F1_o6.bmp	1099	8	8	1
102.255	4.799	8	FixN	Gen/_Fix_Green.bmp	Gen/_Fix_Red.bmp	1033	8	8	1
107.054	4.816	2	OnPy	T3_stroke.bmp	T1_soak.bmp	1210	7	7	1
111.87	5.3	4	OnPn	T3_trial.bmp	T0_fall.bmp	1058	8	8	1
117.17	5.799	5	PercY	_F3_s6.bmp	_F0_s6.bmp	1079	7	7	1
122.969	4.799	7	FixY	Gen/_Fix_Green.bmp	Gen/_Fix_Green.bmp	1064	7	7	1
127.768	4.8	8	FixN	Gen/_Fix_Red.bmp	Gen/_Fix_Green.bmp	952	8	8	1
132.568	5.299	7	FixY	Gen/_Fix_Red.bmp	Gen/_Fix_Red.bmp	985	7	7	1
137.867	4.816	1	OyPy	T3_beef.bmp	T1_reef.bmp	1573	7	7	1
142.683	5.799	3	OyPn	T3_wart.bmp	T1_smart.bmp	1125	8	8	1
148.482	5.799	3	OyPn	T3_dose.bmp	T0_pose.bmp	1094	8	8	1
154.281	4.8	3	OyPn	T3_touch.bmp	T1_couch.bmp	1047	8	8	1
159.081	4.799	6	PercN	_F3_e6.bmp	_F0_s6.bmp	1127	8	8	1
163.88	5.816	8	FixN	Gen/_Fix_Green.bmp	Gen/_Fix_Red.bmp	1048	8	8	1
169.696	5.799	7	FixY	Gen/_Fix_Green.bmp	Gen/_Fix_Green.bmp	1104	7	7	1
175.495	5.3	8	FixN	Gen/_Fix_Red.bmp	Gen/_Fix_Green.bmp	1561	8	8	1
180.795	4.799	7	FixY	Gen/_Fix_Red.bmp	Gen/_Fix_Red.bmp	1077	7	7	1
185.594	5.299	4	OnPn	T3_port.bmp	T1_warm.bmp	1110	8	8	1
190.893	5.8	2	OnPy	T3_june.bmp	T2_noon.bmp	2563	7	7	1
196.693	4.816	4	OnPn	T3_wreath.bmp	T0_leap.bmp	1139	8	8	1
201.509	4.799	5	PercY	_F3_b6.bmp	_F2_b6.bmp	1163	7	7	1
206.308	5.299	3	OyPn	T3_glove.bmp	T0_stove.bmp	1124	8	8	1
211.607	5.816	1	OyPy	T3_numb.bmp	T1_crumb.bmp	1161	7	7	1
217.423	4.8	3	OyPn	T3_stood.bmp	T2_flood.bmp	1057	8	8	1
222.223	5.282	5	PercY	_F3_s4.bmp	_F1_s4.bmp	1289	7	7	1
227.505	5.816	4	OnPn	T3_smart.bmp	T1_drought.bmp	1367	8	8	1
233.321	5.3	2	OnPy	T3_stir.bmp	T2_blur.bmp	1087	7	7	1
238.621	5.299	8	FixN	Gen/_Fix_Red.bmp	Gen/_Fix_Green.bmp	1276	8	8	1
243.92	5.299	7	FixY	Gen/_Fix_Red.bmp	Gen/_Fix_Red.bmp	872	7	7	1
249.219	5.8	3	OyPn	T3_pool.bmp	T0_wool.bmp	1678	8	8	1
255.019	5.316	3	OyPn	T3_fought.bmp	T2_drought.bmp	1103	8	8	1
260.335	4.799	2	OnPy	T3_flight.bmp	T1_spite.bmp	1026	7	7	1
265.134	5.299	2	OnPy	T3_scheme.bmp	T0_cream.bmp	1194	7	7	1
270.433	5.3	6	PercN	_F3_b6.bmp	_F2_f6.bmp	1143	8	8	1
275.733	5.799	4	OnPn	T3_ghost.bmp	T0_pose.bmp	1068	8	8	1
281.532	4.799	4	OnPn	T3_grace.bmp	T1_fence.bmp	1068	8	8	1
286.331	4.816	3	OyPn	T3_dull.bmp	T2_bull.bmp	1381	8	8	1
291.147	4.8	4	OnPn	T3_ford.bmp	T2_rod.bmp	1221	8	8	1
295.947	5.299	1	OyPy	T3_strap.bmp	T2_gap.bmp	1053	7	7	1
301.246	5.299	4	OnPn	T3_stamp.bmp	T2_tomb.bmp	1226	8	8	1
306.545	5.3	2	OnPy	T3_wheel.bmp	T0_deal.bmp	1111	7	7	1
311.845	5.299	2	OnPy	T3_leap.bmp	T2_sweep.bmp	1763	7	7	1
317.144	4.816	4	OnPn	T3_fault.bmp	T2_note.bmp	1104	8	8	1
321.96	5.799	1	OyPy	T3_bull.bmp	T2_full.bmp	1416	7	7	1
327.759	5.8	2	OnPy	T3_chase.bmp	T2_grace.bmp	978	7	7	1
333.559	4.799	2	OnPy	T3_float.bmp	T0_note.bmp	1738	7	7	1
338.358	5.799	2	OnPy	T3_bride.bmp	T0_dried.bmp	1170	7	7	1
344.157	5.833	4	OnPn	T3_thief.bmp	T0_plead.bmp	818	8	8	1
349.99	5.299	1	OyPy	T3_bluff.bmp	T2_puff.bmp	1178	7	7	1
355.289	5.783	5	PercY	_F3_b4.bmp	_F1_b4.bmp	1113	7	7	1
361.072	5.799	1	OyPy	T3_shove.bmp	T1_glove.bmp	1264	7	7	1
366.871	5.299	6	PercN	_F3_d4.bmp	_F1_o4.bmp	1129	8	8	1
372.17	5.816	3	OyPn	T3_stamp.bmp	T2_swamp.bmp	1343	8	8	1
377.986	4.833	3	OyPn	T3_pint.bmp	T0_hint.bmp	1214	8	8	1
