onset	duration	trial_type	trial_name	prime_stim	targ_stim	response_time	resp	cresp	acc
1.508	4.799	3	OyPn	T3_post.bmp	T1_cost.bmp	1372	8	8	1
6.307	5.333	5	PercY	_F3_o4.bmp	_F2_o4.bmp	1204	7	7	1
11.64	4.799	2	OnPy	T3_rum.bmp	T1_numb.bmp	1512	7	7	1
16.439	5.783	7	FixY	Gen/_Fix_Green.bmp	Gen/_Fix_Green.bmp	1209	7	7	1
22.222	4.799	6	PercN	_F3_s6.bmp	_F0_e6.bmp	1410	8	8	1
27.021	4.8	1	OyPy	T3_fought.bmp	T1_sought.bmp	1227	7	7	1
31.821	4.799	1	OyPy	T3_scheme.bmp	T2_theme.bmp	1259	7	7	1
36.62	4.816	5	PercY	_F3_f4.bmp	_F0_f4.bmp	1268	7	7	1
41.436	5.299	1	OyPy	T3_stool.bmp	T0_fool.bmp	1220	7	7	1
46.735	5.3	1	OyPy	T3_soak.bmp	T0_oak.bmp	1353	7	7	1
52.035	5.299	3	OyPn	T3_threat.bmp	T1_wheat.bmp	1157	8	8	1
57.334	4.799	1	OyPy	T3_thread.bmp	T0_spread.bmp	1322	7	7	1
62.133	5.8	2	OnPy	T3_pile.bmp	T1_trial.bmp	1507	7	7	1
67.933	5.816	4	OnPn	T3_swap.bmp	T2_watch.bmp	1459	8	8	1
73.749	5.799	8	FixN	Gen/_Fix_Green.bmp	Gen/_Fix_Red.bmp	1811	8	8	1
79.548	5.299	4	OnPn	T3_tough.bmp	T1_dull.bmp	1300	8	8	1
84.847	5.799	6	PercN	_F3_o4.bmp	_F2_b4.bmp	1233	8	8	1
90.646	5.816	1	OyPy	T3_sweep.bmp	T0_creep.bmp	1314	7	7	1
96.462	5.8	6	PercN	_F3_d6.bmp	_F1_o6.bmp	1226	8	8	1
102.262	4.799	8	FixN	Gen/_Fix_Green.bmp	Gen/_Fix_Red.bmp	1227	8	8	1
107.061	4.799	2	OnPy	T3_stroke.bmp	T1_soak.bmp	1403	7	7	1
111.86	5.3	4	OnPn	T3_trial.bmp	T0_fall.bmp	1364	8	8	1
117.16	5.799	5	PercY	_F3_s6.bmp	_F0_s6.bmp	1328	7	7	1
122.959	4.816	7	FixY	Gen/_Fix_Green.bmp	Gen/_Fix_Green.bmp	1297	7	7	1
127.775	4.799	8	FixN	Gen/_Fix_Red.bmp	Gen/_Fix_Green.bmp	1313	8	8	1
132.574	5.316	7	FixY	Gen/_Fix_Red.bmp	Gen/_Fix_Red.bmp	1314	7	7	1
137.89	4.8	1	OyPy	T3_beef.bmp	T1_reef.bmp	1166	7	7	1
142.69	5.799	3	OyPn	T3_wart.bmp	T1_smart.bmp	1398	8	8	1
148.489	5.799	3	OyPn	T3_dose.bmp	T0_pose.bmp	1328	7	8	0
154.288	4.8	3	OyPn	T3_touch.bmp	T1_couch.bmp	1232	8	8	1
159.088	4.799	6	PercN	_F3_e6.bmp	_F0_s6.bmp	1521	8	8	1
163.887	5.799	8	FixN	Gen/_Fix_Green.bmp	Gen/_Fix_Red.bmp	1425	8	8	1
169.686	5.799	7	FixY	Gen/_Fix_Green.bmp	Gen/_Fix_Green.bmp	1282	7	7	1
175.485	5.3	8	FixN	Gen/_Fix_Red.bmp	Gen/_Fix_Green.bmp	1371	8	8	1
180.785	4.816	7	FixY	Gen/_Fix_Red.bmp	Gen/_Fix_Red.bmp	1687	7	7	1
185.601	5.299	4	OnPn	T3_port.bmp	T1_warm.bmp	1231	8	8	1
190.9	5.799	2	OnPy	T3_june.bmp	T2_noon.bmp	1324	7	7	1
196.699	4.8	4	OnPn	T3_wreath.bmp	T0_leap.bmp	1589	8	8	1
201.499	4.799	5	PercY	_F3_b6.bmp	_F2_b6.bmp	1573	7	7	1
206.298	5.316	3	OyPn	T3_glove.bmp	T0_stove.bmp	1342	8	8	1
211.614	5.799	1	OyPy	T3_numb.bmp	T1_crumb.bmp	1338	7	7	1
217.413	4.8	3	OyPn	T3_stood.bmp	T2_flood.bmp	1547	8	8	1
222.213	5.299	5	PercY	_F3_s4.bmp	_F1_s4.bmp	1451	7	7	1
227.512	5.799	4	OnPn	T3_smart.bmp	T1_drought.bmp	1456	8	8	1
233.311	5.3	2	OnPy	T3_stir.bmp	T2_blur.bmp	1321	7	7	1
238.611	5.316	8	FixN	Gen/_Fix_Red.bmp	Gen/_Fix_Green.bmp	1445	8	8	1
243.927	5.299	7	FixY	Gen/_Fix_Red.bmp	Gen/_Fix_Red.bmp	1210	7	7	1
249.226	5.799	3	OyPn	T3_pool.bmp	T0_wool.bmp	1470	8	8	1
255.025	5.299	3	OyPn	T3_fought.bmp	T2_drought.bmp	1319	8	8	1
260.324	4.8	2	OnPy	T3_flight.bmp	T1_spite.bmp	1156	7	7	1
265.124	5.316	2	OnPy	T3_scheme.bmp	T0_cream.bmp	1292	7	7	1
270.44	5.316	6	PercN	_F3_b6.bmp	_F2_f6.bmp	1248	8	8	1
275.756	5.782	4	OnPn	T3_ghost.bmp	T0_pose.bmp	1532	8	8	1
281.538	4.8	4	OnPn	T3_grace.bmp	T1_fence.bmp	1222	8	8	1
286.338	4.799	3	OyPn	T3_dull.bmp	T2_bull.bmp	1374	7	8	0
291.137	4.8	4	OnPn	T3_ford.bmp	T2_rod.bmp	1439	8	8	1
295.937	5.299	1	OyPy	T3_strap.bmp	T2_gap.bmp	1680	7	7	1
301.236	5.316	4	OnPn	T3_stamp.bmp	T2_tomb.bmp	1444	8	8	1
306.552	5.299	2	OnPy	T3_wheel.bmp	T0_deal.bmp	1432	7	7	1
311.851	5.299	2	OnPy	T3_leap.bmp	T2_sweep.bmp	1341	7	7	1
317.15	4.8	4	OnPn	T3_fault.bmp	T2_note.bmp	1290	8	8	1
321.95	5.799	1	OyPy	T3_bull.bmp	T2_full.bmp	1362	7	7	1
327.749	5.816	2	OnPy	T3_chase.bmp	T2_grace.bmp	1795	7	7	1
333.565	4.799	2	OnPy	T3_float.bmp	T0_note.bmp	1395	7	7	1
338.364	5.8	2	OnPy	T3_bride.bmp	T0_dried.bmp	1228	7	7	1
344.164	5.799	4	OnPn	T3_thief.bmp	T0_plead.bmp	1180	8	8	1
349.963	5.299	1	OyPy	T3_bluff.bmp	T2_puff.bmp	1285	7	7	1
355.262	5.816	5	PercY	_F3_b4.bmp	_F1_b4.bmp	1570	7	7	1
361.078	5.799	1	OyPy	T3_shove.bmp	T1_glove.bmp	1250	7	7	1
366.877	5.3	6	PercN	_F3_d4.bmp	_F1_o4.bmp	1203	8	8	1
372.177	5.799	3	OyPn	T3_stamp.bmp	T2_swamp.bmp	1919	8	8	1
377.976	4.833	3	OyPn	T3_pint.bmp	T0_hint.bmp	2024	7	8	0
