onset	duration	trial_type	trial_name	prime_stim	targ_stim	response_time	resp	cresp	acc
1.511	5.3	3	UnrN	T3_system.bmp	T0_head.bmp	1181	8	8	1
6.811	5.799	2	LowY	T3_speak.bmp	T0_talk.bmp	1234	7	7	1
12.61	5.799	3	UnrN	T3_cobra.bmp	T1_slipper.bmp	1362	8	8	1
18.409	5.299	2	LowY	T3_distance.bmp	T2_mile.bmp	1458	7	7	1
23.708	5.3	8	FixN	Gen/_Fix_Red.bmp	Gen/_Fix_Green.bmp	1464	8	8	1
29.008	5.299	5	PercY	_F3_s4.bmp	_F2_s4.bmp	1388	7	7	1
34.307	5.299	3	UnrN	T3_chill.bmp	T0_hawk.bmp	1417	8	8	1
39.606	5.3	1	HighY	T3_thin.bmp	T0_fat.bmp	1646	7	7	1
44.906	5.299	1	HighY	T3_sketch.bmp	T0_draw.bmp	1610	7	7	1
50.205	5.299	7	FixY	Gen/_Fix_Red.bmp	Gen/_Fix_Red.bmp	1567	7	7	1
55.504	4.8	1	HighY	T3_dog.bmp	T2_cat.bmp	1307	7	7	1
60.304	4.799	2	LowY	T3_guide.bmp	T1_tour.bmp	1476	7	7	1
65.103	4.799	8	FixN	Gen/_Fix_Red.bmp	Gen/_Fix_Green.bmp	1404	8	8	1
69.902	5.8	3	UnrN	T3_adult.bmp	T0_pond.bmp	2102	8	8	1
75.702	5.799	7	FixY	Gen/_Fix_Green.bmp	Gen/_Fix_Green.bmp	1486	7	7	1
81.501	5.799	2	LowY	T3_reef.bmp	T0_coral.bmp	1479	7	7	1
87.3	5.799	5	PercY	_F3_e6.bmp	_F1_e6.bmp	1272	7	7	1
93.099	5.816	8	FixN	Gen/_Fix_Red.bmp	Gen/_Fix_Green.bmp	1376	8	8	1
98.915	4.8	1	HighY	T3_little.bmp	T1_big.bmp	1616	7	7	1
103.715	4.799	2	LowY	T3_motion.bmp	T1_movement.bmp	1377	7	7	1
108.514	4.783	3	UnrN	T3_hoof.bmp	T0_stitch.bmp	1339	8	8	1
113.297	5.799	2	LowY	T3_salad.bmp	T0_lettuce.bmp	1067	7	7	1
119.096	5.299	2	LowY	T3_lip.bmp	T1_kiss.bmp	2131	7	7	1
124.395	5.3	2	LowY	T3_shout.bmp	T1_yell.bmp	1321	7	7	1
129.695	5.299	1	HighY	T3_dime.bmp	T0_nickel.bmp	1901	7	7	1
134.994	5.299	5	PercY	_F3_o4.bmp	_F2_o4.bmp	1201	7	7	1
140.293	4.8	3	UnrN	T3_cream.bmp	T2_grip.bmp	2302	8	8	1
145.093	5.299	3	UnrN	T3_trust.bmp	T2_dozen.bmp	1335	8	8	1
150.392	4.8	3	UnrN	T3_sailing.bmp	T2_nest.bmp	1644	8	8	1
155.192	4.799	8	FixN	Gen/_Fix_Green.bmp	Gen/_Fix_Red.bmp	1196	8	8	1
159.991	4.799	3	UnrN	T3_pigeon.bmp	T1_gamble.bmp	1260	8	8	1
164.79	4.783	2	LowY	T3_maple.bmp	T2_syrup.bmp	1262	7	7	1
169.573	5.799	2	LowY	T3_hop.bmp	T0_skip.bmp	3534	8	7	0
175.372	5.3	6	PercN	_F3_f6.bmp	_F1_d6.bmp	2407	8	8	1
180.672	4.799	6	PercN	_F3_d4.bmp	_F0_o4.bmp	1597	8	8	1
185.471	5.799	8	FixN	Gen/_Fix_Green.bmp	Gen/_Fix_Red.bmp	1628	8	8	1
191.27	5.799	3	UnrN	T3_blanket.bmp	T1_split.bmp	3085	8	8	1
197.069	4.8	1	HighY	T3_yours.bmp	T1_mine.bmp	1407	7	7	1
201.869	5.799	3	UnrN	T3_corn.bmp	T1_blame.bmp	1710	8	8	1
207.668	5.299	3	UnrN	T3_hunter.bmp	T2_lemon.bmp	1608	8	8	1
212.967	5.3	7	FixY	Gen/_Fix_Red.bmp	Gen/_Fix_Red.bmp	1260	7	7	1
218.267	4.799	6	PercN	_F3_b6.bmp	_F1_f6.bmp	1432	8	8	1
223.066	5.816	1	HighY	T3_prison.bmp	T2_jail.bmp	1578	7	7	1
228.882	4.799	2	LowY	T3_hoot.bmp	T2_owl.bmp	1210	7	7	1
233.681	5.283	6	PercN	_F3_f4.bmp	_F0_d4.bmp	1283	8	8	1
238.964	5.299	2	LowY	T3_water.bmp	T2_drink.bmp	1167	7	7	1
244.263	5.8	7	FixY	Gen/_Fix_Green.bmp	Gen/_Fix_Green.bmp	1261	7	7	1
250.063	4.799	1	HighY	T3_table.bmp	T0_chair.bmp	1268	7	7	1
254.862	5.299	8	FixN	Gen/_Fix_Green.bmp	Gen/_Fix_Red.bmp	1205	8	8	1
260.161	5.8	1	HighY	T3_vine.bmp	T2_grape.bmp	1403	7	7	1
265.961	5.799	1	HighY	T3_noun.bmp	T1_verb.bmp	1099	7	7	1
271.76	5.799	6	PercN	_F3_o4.bmp	_F2_b4.bmp	1267	8	8	1
277.559	4.8	7	FixY	Gen/_Fix_Red.bmp	Gen/_Fix_Red.bmp	1316	7	7	1
282.359	4.799	5	PercY	_F3_b6.bmp	_F0_b6.bmp	1237	7	7	1
287.158	5.799	1	HighY	T3_lend.bmp	T1_borrow.bmp	1374	7	7	1
292.957	4.8	7	FixY	Gen/_Fix_Green.bmp	Gen/_Fix_Green.bmp	1294	7	7	1
297.757	5.299	1	HighY	T3_silver.bmp	T2_gold.bmp	1711	7	7	1
303.056	5.799	5	PercY	_F3_d6.bmp	_F1_d6.bmp	1268	7	7	1
308.855	5.799	6	PercN	_F3_o6.bmp	_F2_b6.bmp	1533	8	8	1
314.654	4.333	5	PercY	_F3_d4.bmp	_F0_d4.bmp	1134	7	7	1
