onset	duration	trial_type	trial_name	prime_stim	targ_stim	response_time	resp	cresp	acc
1.505	5.299	3	UnrN	T3_system.bmp	T0_head.bmp	1598	8	8	1
6.804	5.799	2	LowY	T3_speak.bmp	T0_talk.bmp	1587	7	7	1
12.603	5.799	3	UnrN	T3_cobra.bmp	T1_slipper.bmp	1876	8	8	1
18.402	5.3	2	LowY	T3_distance.bmp	T2_mile.bmp	1597	7	7	1
23.702	5.299	8	FixN	Gen/_Fix_Red.bmp	Gen/_Fix_Green.bmp	1457	8	8	1
29.001	5.299	5	PercY	_F3_s4.bmp	_F2_s4.bmp	1590	7	7	1
34.3	5.3	3	UnrN	T3_chill.bmp	T0_hawk.bmp	1747	8	8	1
39.6	5.299	1	HighY	T3_thin.bmp	T0_fat.bmp	1919	7	7	1
44.899	5.299	1	HighY	T3_sketch.bmp	T0_draw.bmp	1868	7	7	1
50.198	5.3	7	FixY	Gen/_Fix_Red.bmp	Gen/_Fix_Red.bmp	1641	7	7	1
55.498	4.799	1	HighY	T3_dog.bmp	T2_cat.bmp	1485	7	7	1
60.297	4.799	2	LowY	T3_guide.bmp	T1_tour.bmp	1486	7	7	1
65.096	4.8	8	FixN	Gen/_Fix_Red.bmp	Gen/_Fix_Green.bmp	1447	8	8	1
69.896	5.799	3	UnrN	T3_adult.bmp	T0_pond.bmp	2007	8	8	1
75.695	5.799	7	FixY	Gen/_Fix_Green.bmp	Gen/_Fix_Green.bmp	2344	7	7	1
81.494	5.8	2	LowY	T3_reef.bmp	T0_coral.bmp	2113	7	7	1
87.294	5.782	5	PercY	_F3_e6.bmp	_F1_e6.bmp	1578	7	7	1
93.076	5.799	8	FixN	Gen/_Fix_Red.bmp	Gen/_Fix_Green.bmp	1443	8	8	1
98.875	4.8	1	HighY	T3_little.bmp	T1_big.bmp	1700	7	7	1
103.675	4.799	2	LowY	T3_motion.bmp	T1_movement.bmp	1540	7	7	1
108.474	4.799	3	UnrN	T3_hoof.bmp	T0_stitch.bmp	1541	8	8	1
113.273	5.8	2	LowY	T3_salad.bmp	T0_lettuce.bmp	1566	7	7	1
119.073	5.299	2	LowY	T3_lip.bmp	T1_kiss.bmp	1718	7	7	1
124.372	5.299	2	LowY	T3_shout.bmp	T1_yell.bmp	1507	7	7	1
129.671	5.3	1	HighY	T3_dime.bmp	T0_nickel.bmp	1392	7	7	1
134.971	5.316	5	PercY	_F3_o4.bmp	_F2_o4.bmp	1516	7	7	1
140.287	4.799	3	UnrN	T3_cream.bmp	T2_grip.bmp	1288	8	8	1
145.086	5.299	3	UnrN	T3_trust.bmp	T2_dozen.bmp	1321	8	8	1
150.385	4.8	3	UnrN	T3_sailing.bmp	T2_nest.bmp	1270	8	8	1
155.185	4.799	8	FixN	Gen/_Fix_Green.bmp	Gen/_Fix_Red.bmp	1598	8	8	1
159.984	4.8	3	UnrN	T3_pigeon.bmp	T1_gamble.bmp	1495	8	8	1
164.784	4.799	2	LowY	T3_maple.bmp	T2_syrup.bmp	1616	7	7	1
169.583	5.799	2	LowY	T3_hop.bmp	T0_skip.bmp	1416	7	7	1
175.382	5.299	6	PercN	_F3_f6.bmp	_F1_d6.bmp	1345	8	8	1
180.681	4.8	6	PercN	_F3_d4.bmp	_F0_o4.bmp	1494	8	8	1
185.481	5.799	8	FixN	Gen/_Fix_Green.bmp	Gen/_Fix_Red.bmp	1870	8	8	1
191.28	5.799	3	UnrN	T3_blanket.bmp	T1_split.bmp	1839	8	8	1
197.079	4.8	1	HighY	T3_yours.bmp	T1_mine.bmp	1352	7	7	1
201.879	5.799	3	UnrN	T3_corn.bmp	T1_blame.bmp	1360	8	8	1
207.678	5.299	3	UnrN	T3_hunter.bmp	T2_lemon.bmp	1769	8	8	1
212.977	5.3	7	FixY	Gen/_Fix_Red.bmp	Gen/_Fix_Red.bmp	1382	7	7	1
218.277	4.782	6	PercN	_F3_b6.bmp	_F1_f6.bmp	1547	8	8	1
223.059	5.799	1	HighY	T3_prison.bmp	T2_jail.bmp	1292	7	7	1
228.858	4.8	2	LowY	T3_hoot.bmp	T2_owl.bmp	1557	7	7	1
233.658	5.299	6	PercN	_F3_f4.bmp	_F0_d4.bmp	1269	8	8	1
238.957	5.299	2	LowY	T3_water.bmp	T2_drink.bmp	1258	7	7	1
244.256	5.8	7	FixY	Gen/_Fix_Green.bmp	Gen/_Fix_Green.bmp	2559	7	7	1
250.056	4.799	1	HighY	T3_table.bmp	T0_chair.bmp	1423	7	7	1
254.855	5.299	8	FixN	Gen/_Fix_Green.bmp	Gen/_Fix_Red.bmp	1400	8	8	1
260.154	5.816	1	HighY	T3_vine.bmp	T2_grape.bmp	1525	7	7	1
265.97	5.8	1	HighY	T3_noun.bmp	T1_verb.bmp	1645	7	7	1
271.77	5.799	6	PercN	_F3_o4.bmp	_F2_b4.bmp	1053	8	8	1
277.569	4.799	7	FixY	Gen/_Fix_Red.bmp	Gen/_Fix_Red.bmp	1782	7	7	1
282.368	4.783	5	PercY	_F3_b6.bmp	_F0_b6.bmp	1263	7	7	1
287.151	5.799	1	HighY	T3_lend.bmp	T1_borrow.bmp	1672	7	7	1
292.95	4.8	7	FixY	Gen/_Fix_Green.bmp	Gen/_Fix_Green.bmp	1073	7	7	1
297.75	5.299	1	HighY	T3_silver.bmp	T2_gold.bmp	1202	7	7	1
303.049	5.799	5	PercY	_F3_d6.bmp	_F1_d6.bmp	1702	7	7	1
308.848	5.799	6	PercN	_F3_o6.bmp	_F2_b6.bmp	1199	8	8	1
314.647	4.333	5	PercY	_F3_d4.bmp	_F0_d4.bmp	1144	7	7	1
