onset	duration	trial_type	trial_name	prime_stim	targ_stim	response_time	resp	cresp	acc
1.509	4.8	3	OyPn	T3_post.bmp	T1_cost.bmp	1515	8	8	1
6.309	5.316	5	PercY	_F3_o4.bmp	_F2_o4.bmp	827	7	7	1
11.625	4.799	2	OnPy	T3_rum.bmp	T1_numb.bmp	1375	7	7	1
16.424	5.799	7	FixY	Gen/_Fix_Green.bmp	Gen/_Fix_Green.bmp	1152	7	7	1
22.223	4.8	6	PercN	_F3_s6.bmp	_F0_e6.bmp	1537	8	8	1
27.023	4.799	1	OyPy	T3_fought.bmp	T1_sought.bmp	1177	7	7	1
31.822	4.799	1	OyPy	T3_scheme.bmp	T2_theme.bmp	1042	7	7	1
36.621	4.817	5	PercY	_F3_f4.bmp	_F0_f4.bmp	1195	7	7	1
41.438	5.299	1	OyPy	T3_stool.bmp	T0_fool.bmp	915	7	7	1
46.737	5.299	1	OyPy	T3_soak.bmp	T0_oak.bmp	919	7	7	1
52.036	5.299	3	OyPn	T3_threat.bmp	T1_wheat.bmp	1396	8	8	1
57.335	4.783	1	OyPy	T3_thread.bmp	T0_spread.bmp	905	7	7	1
62.118	5.799	2	OnPy	T3_pile.bmp	T1_trial.bmp	1002	7	7	1
67.917	5.816	4	OnPn	T3_swap.bmp	T2_watch.bmp	1147	8	8	1
73.733	5.799	8	FixN	Gen/_Fix_Green.bmp	Gen/_Fix_Red.bmp	859	8	8	1
79.532	5.3	4	OnPn	T3_tough.bmp	T1_dull.bmp	1220	8	8	1
84.832	5.799	6	PercN	_F3_o4.bmp	_F2_b4.bmp	1048	8	8	1
90.631	5.799	1	OyPy	T3_sweep.bmp	T0_creep.bmp	897	7	7	1
96.43	5.816	6	PercN	_F3_d6.bmp	_F1_o6.bmp	1434	8	8	1
102.246	4.816	8	FixN	Gen/_Fix_Green.bmp	Gen/_Fix_Red.bmp	1194	8	8	1
107.062	4.8	2	OnPy	T3_stroke.bmp	T1_soak.bmp	842	7	7	1
111.862	5.299	4	OnPn	T3_trial.bmp	T0_fall.bmp	1082	8	8	1
117.161	5.799	5	PercY	_F3_s6.bmp	_F0_s6.bmp	551	7	7	1
122.96	4.816	7	FixY	Gen/_Fix_Green.bmp	Gen/_Fix_Green.bmp	1008	7	7	1
127.776	4.8	8	FixN	Gen/_Fix_Red.bmp	Gen/_Fix_Green.bmp	1016	8	8	1
132.576	5.299	7	FixY	Gen/_Fix_Red.bmp	Gen/_Fix_Red.bmp	608	7	7	1
137.875	4.799	1	OyPy	T3_beef.bmp	T1_reef.bmp	901	7	7	1
142.674	5.8	3	OyPn	T3_wart.bmp	T1_smart.bmp	1438	8	8	1
148.474	5.799	3	OyPn	T3_dose.bmp	T0_pose.bmp	1527	7	8	0
154.273	4.816	3	OyPn	T3_touch.bmp	T1_couch.bmp	1239	8	8	1
159.089	4.799	6	PercN	_F3_e6.bmp	_F0_s6.bmp	1127	8	8	1
163.888	5.799	8	FixN	Gen/_Fix_Green.bmp	Gen/_Fix_Red.bmp	936	8	8	1
169.687	5.8	7	FixY	Gen/_Fix_Green.bmp	Gen/_Fix_Green.bmp	993	7	7	1
175.487	5.299	8	FixN	Gen/_Fix_Red.bmp	Gen/_Fix_Green.bmp	1057	8	8	1
180.786	4.816	7	FixY	Gen/_Fix_Red.bmp	Gen/_Fix_Red.bmp	934	7	7	1
185.602	5.299	4	OnPn	T3_port.bmp	T1_warm.bmp	1142	8	8	1
190.901	5.783	2	OnPy	T3_june.bmp	T2_noon.bmp	1363	7	7	1
196.684	4.799	4	OnPn	T3_wreath.bmp	T0_leap.bmp	1828	8	8	1
201.483	4.8	5	PercY	_F3_b6.bmp	_F2_b6.bmp	1317	7	7	1
206.283	5.299	3	OyPn	T3_glove.bmp	T0_stove.bmp	1453	8	8	1
211.582	5.816	1	OyPy	T3_numb.bmp	T1_crumb.bmp	1226	7	7	1
217.398	4.799	3	OyPn	T3_stood.bmp	T2_flood.bmp	1274	8	8	1
222.197	5.3	5	PercY	_F3_s4.bmp	_F1_s4.bmp	811	7	7	1
227.497	5.799	4	OnPn	T3_smart.bmp	T1_drought.bmp	1072	8	8	1
233.296	5.316	2	OnPy	T3_stir.bmp	T2_blur.bmp	1528	7	7	1
238.612	5.316	8	FixN	Gen/_Fix_Red.bmp	Gen/_Fix_Green.bmp	1948	8	8	1
243.928	5.299	7	FixY	Gen/_Fix_Red.bmp	Gen/_Fix_Red.bmp	720	7	7	1
249.227	5.799	3	OyPn	T3_pool.bmp	T0_wool.bmp	1613	8	8	1
255.026	5.3	3	OyPn	T3_fought.bmp	T2_drought.bmp	1318	8	8	1
260.326	4.799	2	OnPy	T3_flight.bmp	T1_spite.bmp	1162	7	7	1
265.125	5.299	2	OnPy	T3_scheme.bmp	T0_cream.bmp	1203	7	7	1
270.424	5.316	6	PercN	_F3_b6.bmp	_F2_f6.bmp	872	8	8	1
275.74	5.8	4	OnPn	T3_ghost.bmp	T0_pose.bmp	1084	8	8	1
281.54	4.799	4	OnPn	T3_grace.bmp	T1_fence.bmp	1236	8	8	1
286.339	4.799	3	OyPn	T3_dull.bmp	T2_bull.bmp	989	7	8	0
291.138	4.8	4	OnPn	T3_ford.bmp	T2_rod.bmp	1326	8	8	1
295.938	5.299	1	OyPy	T3_strap.bmp	T2_gap.bmp	1198	7	7	1
301.237	5.316	4	OnPn	T3_stamp.bmp	T2_tomb.bmp	1187	8	8	1
306.553	5.299	2	OnPy	T3_wheel.bmp	T0_deal.bmp	1079	7	7	1
311.852	5.3	2	OnPy	T3_leap.bmp	T2_sweep.bmp	1588	8	7	0
317.152	4.799	4	OnPn	T3_fault.bmp	T2_note.bmp	952	8	8	1
321.951	5.783	1	OyPy	T3_bull.bmp	T2_full.bmp	1026	7	7	1
327.734	5.815	2	OnPy	T3_chase.bmp	T2_grace.bmp	1043	7	7	1
333.549	4.8	2	OnPy	T3_float.bmp	T0_note.bmp	1179	7	7	1
338.349	5.799	2	OnPy	T3_bride.bmp	T0_dried.bmp	1123	7	7	1
344.148	5.799	4	OnPn	T3_thief.bmp	T0_plead.bmp	1036	8	8	1
349.947	5.3	1	OyPy	T3_bluff.bmp	T2_puff.bmp	1045	7	7	1
355.247	5.816	5	PercY	_F3_b4.bmp	_F1_b4.bmp	921	7	7	1
361.063	5.816	1	OyPy	T3_shove.bmp	T1_glove.bmp	1417	7	7	1
366.879	5.299	6	PercN	_F3_d4.bmp	_F1_o4.bmp	802	8	8	1
372.178	5.799	3	OyPn	T3_stamp.bmp	T2_swamp.bmp	1806	8	8	1
377.977	4.833	3	OyPn	T3_pint.bmp	T0_hint.bmp	1839	8	8	1
