onset	duration	trial_type	trial_name	prime_stim	targ_stim	response_time	resp	cresp	acc
1.505	4.816	3	OyPn	T3_post.bmp	T1_cost.bmp	1731	8	8	1
6.321	5.3	5	PercY	_F3_o4.bmp	_F2_o4.bmp	1411	7	7	1
11.621	4.799	2	OnPy	T3_rum.bmp	T1_numb.bmp	1456	7	7	1
16.42	5.799	7	FixY	Gen/_Fix_Green.bmp	Gen/_Fix_Green.bmp	1512	7	7	1
22.219	4.8	6	PercN	_F3_s6.bmp	_F0_e6.bmp	1665	8	8	1
27.019	4.806	1	OyPy	T3_fought.bmp	T1_sought.bmp	3444	7	7	1
31.825	4.799	1	OyPy	T3_scheme.bmp	T2_theme.bmp	1492	7	7	1
36.624	4.799	5	PercY	_F3_f4.bmp	_F0_f4.bmp	1476	7	7	1
41.423	5.316	1	OyPy	T3_stool.bmp	T0_fool.bmp	1485	7	7	1
46.739	5.3	1	OyPy	T3_soak.bmp	T0_oak.bmp	1545	7	7	1
52.039	5.299	3	OyPn	T3_threat.bmp	T1_wheat.bmp	1518	8	8	1
57.338	4.799	1	OyPy	T3_thread.bmp	T0_spread.bmp	1576	7	7	1
62.137	5.816	2	OnPy	T3_pile.bmp	T1_trial.bmp	2195	7	7	1
67.953	5.783	4	OnPn	T3_swap.bmp	T2_watch.bmp	1364	8	8	1
73.736	5.816	8	FixN	Gen/_Fix_Green.bmp	Gen/_Fix_Red.bmp	1388	8	8	1
79.552	5.299	4	OnPn	T3_tough.bmp	T1_dull.bmp	1236	8	8	1
84.851	5.799	6	PercN	_F3_o4.bmp	_F2_b4.bmp	1849	8	8	1
90.65	5.8	1	OyPy	T3_sweep.bmp	T0_creep.bmp	1218	7	7	1
96.45	5.816	6	PercN	_F3_d6.bmp	_F1_o6.bmp	1395	8	8	1
102.266	4.799	8	FixN	Gen/_Fix_Green.bmp	Gen/_Fix_Red.bmp	2099	8	8	1
107.065	4.799	2	OnPy	T3_stroke.bmp	T1_soak.bmp	1371	7	7	1
111.864	5.3	4	OnPn	T3_trial.bmp	T0_fall.bmp	1340	8	8	1
117.164	5.799	5	PercY	_F3_s6.bmp	_F0_s6.bmp	1353	7	7	1
122.963	4.799	7	FixY	Gen/_Fix_Green.bmp	Gen/_Fix_Green.bmp	2089	7	7	1
127.762	4.816	8	FixN	Gen/_Fix_Red.bmp	Gen/_Fix_Green.bmp	1274	8	8	1
132.578	5.316	7	FixY	Gen/_Fix_Red.bmp	Gen/_Fix_Red.bmp	1466	7	7	1
137.894	4.8	1	OyPy	T3_beef.bmp	T1_reef.bmp	1670	7	7	1
142.694	5.799	3	OyPn	T3_wart.bmp	T1_smart.bmp	1646	8	8	1
148.493	5.782	3	OyPn	T3_dose.bmp	T0_pose.bmp	3967	7	8	0
154.275	4.8	3	OyPn	T3_touch.bmp	T1_couch.bmp	3578	8	8	1
159.075	4.816	6	PercN	_F3_e6.bmp	_F0_s6.bmp	1409	8	8	1
163.891	5.799	8	FixN	Gen/_Fix_Green.bmp	Gen/_Fix_Red.bmp	1169	8	8	1
169.69	5.799	7	FixY	Gen/_Fix_Green.bmp	Gen/_Fix_Green.bmp	1442	7	7	1
175.489	5.3	8	FixN	Gen/_Fix_Red.bmp	Gen/_Fix_Green.bmp	1899	8	8	1
180.789	4.799	7	FixY	Gen/_Fix_Red.bmp	Gen/_Fix_Red.bmp	1239	7	7	1
185.588	5.316	4	OnPn	T3_port.bmp	T1_warm.bmp	1272	8	8	1
190.904	5.799	2	OnPy	T3_june.bmp	T2_noon.bmp	1252	7	7	1
196.703	4.8	4	OnPn	T3_wreath.bmp	T0_leap.bmp	1653	8	8	1
201.503	4.799	5	PercY	_F3_b6.bmp	_F2_b6.bmp	1181	7	7	1
206.302	5.299	3	OyPn	T3_glove.bmp	T0_stove.bmp	1606	8	8	1
211.601	5.816	1	OyPy	T3_numb.bmp	T1_crumb.bmp	1427	7	7	1
217.417	4.8	3	OyPn	T3_stood.bmp	T2_flood.bmp	1875	8	8	1
222.217	5.299	5	PercY	_F3_s4.bmp	_F1_s4.bmp	1339	7	7	1
227.516	5.799	4	OnPn	T3_smart.bmp	T1_drought.bmp	1344	8	8	1
233.315	5.3	2	OnPy	T3_stir.bmp	T2_blur.bmp	2497	7	7	1
238.615	5.299	8	FixN	Gen/_Fix_Red.bmp	Gen/_Fix_Green.bmp	1974	8	8	1
243.914	5.316	7	FixY	Gen/_Fix_Red.bmp	Gen/_Fix_Red.bmp	3562	7	7	1
249.23	5.799	3	OyPn	T3_pool.bmp	T0_wool.bmp	1510	7	8	0
255.029	5.299	3	OyPn	T3_fought.bmp	T2_drought.bmp	1615	8	8	1
260.328	4.8	2	OnPy	T3_flight.bmp	T1_spite.bmp	1300	7	7	1
265.128	5.316	2	OnPy	T3_scheme.bmp	T0_cream.bmp	1756	7	7	1
270.444	5.299	6	PercN	_F3_b6.bmp	_F2_f6.bmp	1272	8	8	1
275.743	5.799	4	OnPn	T3_ghost.bmp	T0_pose.bmp	2045	8	8	1
281.542	4.8	4	OnPn	T3_grace.bmp	T1_fence.bmp	1382	8	8	1
286.342	4.799	3	OyPn	T3_dull.bmp	T2_bull.bmp	1358	7	8	0
291.141	4.8	4	OnPn	T3_ford.bmp	T2_rod.bmp	1359	8	8	1
295.941	5.299	1	OyPy	T3_strap.bmp	T2_gap.bmp	1448	7	7	1
301.24	5.299	4	OnPn	T3_stamp.bmp	T2_tomb.bmp	1396	8	8	1
306.539	5.316	2	OnPy	T3_wheel.bmp	T0_deal.bmp	1529	7	7	1
311.855	5.299	2	OnPy	T3_leap.bmp	T2_sweep.bmp	1389	7	7	1
317.154	4.8	4	OnPn	T3_fault.bmp	T2_note.bmp	2018	8	8	1
321.954	5.799	1	OyPy	T3_bull.bmp	T2_full.bmp	2418	7	7	1
327.753	5.799	2	OnPy	T3_chase.bmp	T2_grace.bmp	1251	7	7	1
333.552	4.816	2	OnPy	T3_float.bmp	T0_note.bmp	2620	7	7	1
338.368	5.8	2	OnPy	T3_bride.bmp	T0_dried.bmp	1228	7	7	1
344.168	5.799	4	OnPn	T3_thief.bmp	T0_plead.bmp	2013	8	8	1
349.967	5.299	1	OyPy	T3_bluff.bmp	T2_puff.bmp	1293	7	7	1
355.266	5.799	5	PercY	_F3_b4.bmp	_F1_b4.bmp	1370	7	7	1
361.065	5.816	1	OyPy	T3_shove.bmp	T1_glove.bmp	2227	7	7	1
366.881	5.3	6	PercN	_F3_d4.bmp	_F1_o4.bmp	1738	8	8	1
372.181	5.799	3	OyPn	T3_stamp.bmp	T2_swamp.bmp	1559	8	8	1
377.98	4.833	3	OyPn	T3_pint.bmp	T0_hint.bmp	1863	8	8	1
