onset	duration	trial_type	trial_name	prime_stim	targ_stim	response_time	resp	cresp	acc
1.513	5.299	3	UnrN	T3_system.bmp	T0_head.bmp	1467	8	8	1
6.812	5.799	2	LowY	T3_speak.bmp	T0_talk.bmp	2632	8	7	0
12.611	5.799	3	UnrN	T3_cobra.bmp	T1_slipper.bmp	4463	8	8	1
18.41	5.3	2	LowY	T3_distance.bmp	T2_mile.bmp	2314	8	7	0
23.71	5.299	8	FixN	Gen/_Fix_Red.bmp	Gen/_Fix_Green.bmp	2246	8	8	1
29.009	5.299	5	PercY	_F3_s4.bmp	_F2_s4.bmp	1163	7	7	1
34.308	5.3	3	UnrN	T3_chill.bmp	T0_hawk.bmp	2176	8	8	1
39.608	5.299	1	HighY	T3_thin.bmp	T0_fat.bmp	3612	7	7	1
44.907	5.299	1	HighY	T3_sketch.bmp	T0_draw.bmp	2169	8	7	0
50.206	5.3	7	FixY	Gen/_Fix_Red.bmp	Gen/_Fix_Red.bmp	2030	7	7	1
55.506	4.799	1	HighY	T3_dog.bmp	T2_cat.bmp	3146	8	7	0
60.305	4.799	2	LowY	T3_guide.bmp	T1_tour.bmp	2203	7	7	1
65.104	4.8	8	FixN	Gen/_Fix_Red.bmp	Gen/_Fix_Green.bmp	940	8	8	1
69.904	5.799	3	UnrN	T3_adult.bmp	T0_pond.bmp	4299	n/a	8	n/a
75.703	5.816	7	FixY	Gen/_Fix_Green.bmp	Gen/_Fix_Green.bmp	1165	7	7	1
81.519	5.799	2	LowY	T3_reef.bmp	T0_coral.bmp	1677	8	7	0
87.318	5.783	5	PercY	_F3_e6.bmp	_F1_e6.bmp	574	7	7	1
93.101	5.799	8	FixN	Gen/_Fix_Red.bmp	Gen/_Fix_Green.bmp	1823	8	8	1
98.9	4.8	1	HighY	T3_little.bmp	T1_big.bmp	2032	7	7	1
103.7	4.799	2	LowY	T3_motion.bmp	T1_movement.bmp	3447	8	7	0
108.499	4.799	3	UnrN	T3_hoof.bmp	T0_stitch.bmp	2625	7	8	0
113.298	5.8	2	LowY	T3_salad.bmp	T0_lettuce.bmp	3522	8	7	0
119.098	5.299	2	LowY	T3_lip.bmp	T1_kiss.bmp	1443	7	7	1
124.397	5.299	2	LowY	T3_shout.bmp	T1_yell.bmp	2231	8	7	0
129.696	5.3	1	HighY	T3_dime.bmp	T0_nickel.bmp	2860	8	7	0
134.996	5.299	5	PercY	_F3_o4.bmp	_F2_o4.bmp	1489	7	7	1
140.295	4.799	3	UnrN	T3_cream.bmp	T2_grip.bmp	1309	8	8	1
145.094	5.283	3	UnrN	T3_trust.bmp	T2_dozen.bmp	2110	8	8	1
150.377	4.799	3	UnrN	T3_sailing.bmp	T2_nest.bmp	2923	7	8	0
155.176	4.8	8	FixN	Gen/_Fix_Green.bmp	Gen/_Fix_Red.bmp	1476	8	8	1
159.976	4.799	3	UnrN	T3_pigeon.bmp	T1_gamble.bmp	3714	8	8	1
164.775	4.799	2	LowY	T3_maple.bmp	T2_syrup.bmp	3181	7	7	1
169.574	5.8	2	LowY	T3_hop.bmp	T0_skip.bmp	4158	8	7	0
175.374	5.299	6	PercN	_F3_f6.bmp	_F1_d6.bmp	1318	8	8	1
180.673	4.799	6	PercN	_F3_d4.bmp	_F0_o4.bmp	3377	8	8	1
185.472	5.8	8	FixN	Gen/_Fix_Green.bmp	Gen/_Fix_Red.bmp	2148	8	8	1
191.272	5.799	3	UnrN	T3_blanket.bmp	T1_split.bmp	2044	7	8	0
197.071	4.799	1	HighY	T3_yours.bmp	T1_mine.bmp	869	8	7	0
201.87	5.8	3	UnrN	T3_corn.bmp	T1_blame.bmp	3350	7	8	0
207.67	5.316	3	UnrN	T3_hunter.bmp	T2_lemon.bmp	1863	8	8	1
212.986	5.299	7	FixY	Gen/_Fix_Red.bmp	Gen/_Fix_Red.bmp	395	7	7	1
218.285	4.783	6	PercN	_F3_b6.bmp	_F1_f6.bmp	1423	8	8	1
223.068	5.799	1	HighY	T3_prison.bmp	T2_jail.bmp	2593	7	7	1
228.867	4.799	2	LowY	T3_hoot.bmp	T2_owl.bmp	489	8	7	0
233.666	5.3	6	PercN	_F3_f4.bmp	_F0_d4.bmp	1578	8	8	1
238.966	5.299	2	LowY	T3_water.bmp	T2_drink.bmp	3799	n/a	7	n/a
244.265	5.799	7	FixY	Gen/_Fix_Green.bmp	Gen/_Fix_Green.bmp	4299	n/a	7	n/a
250.064	4.8	1	HighY	T3_table.bmp	T0_chair.bmp	2068	8	7	0
254.864	5.299	8	FixN	Gen/_Fix_Green.bmp	Gen/_Fix_Red.bmp	1045	7	8	0
260.163	5.799	1	HighY	T3_vine.bmp	T2_grape.bmp	609	7	7	1
265.962	5.799	1	HighY	T3_noun.bmp	T1_verb.bmp	4299	n/a	7	n/a
271.761	5.8	6	PercN	_F3_o4.bmp	_F2_b4.bmp	27	7	8	0
277.561	4.799	7	FixY	Gen/_Fix_Red.bmp	Gen/_Fix_Red.bmp	3299	n/a	7	n/a
282.36	4.799	5	PercY	_F3_b6.bmp	_F0_b6.bmp	3794	8	7	0
287.159	5.8	1	HighY	T3_lend.bmp	T1_borrow.bmp	3965	7	7	1
292.959	4.799	7	FixY	Gen/_Fix_Green.bmp	Gen/_Fix_Green.bmp	3299	n/a	7	n/a
297.758	5.299	1	HighY	T3_silver.bmp	T2_gold.bmp	3799	n/a	7	n/a
303.057	5.8	5	PercY	_F3_d6.bmp	_F1_d6.bmp	979	7	7	1
308.857	5.799	6	PercN	_F3_o6.bmp	_F2_b6.bmp	620	8	8	1
314.656	4.333	5	PercY	_F3_d4.bmp	_F0_d4.bmp	908	7	7	1
