onset	duration	trial_type	trial_name	prime_stim	targ_stim	response_time	resp	cresp	acc
1.497	4.799	3	OyPn	T3_post.bmp	T1_cost.bmp	1583	7	8	0
6.296	5.3	5	PercY	_F3_o4.bmp	_F2_o4.bmp	1224	7	7	1
11.596	4.799	2	OnPy	T3_rum.bmp	T1_numb.bmp	1461	7	7	1
16.395	5.816	7	FixY	Gen/_Fix_Green.bmp	Gen/_Fix_Green.bmp	1277	7	7	1
22.211	4.799	6	PercN	_F3_s6.bmp	_F0_e6.bmp	1357	8	8	1
27.01	4.816	1	OyPy	T3_fought.bmp	T1_sought.bmp	2422	8	7	0
31.826	4.8	1	OyPy	T3_scheme.bmp	T2_theme.bmp	1462	7	7	1
36.626	4.799	5	PercY	_F3_f4.bmp	_F0_f4.bmp	1182	7	7	1
41.425	5.299	1	OyPy	T3_stool.bmp	T0_fool.bmp	1511	7	7	1
46.724	5.317	1	OyPy	T3_soak.bmp	T0_oak.bmp	1244	7	7	1
52.041	5.299	3	OyPn	T3_threat.bmp	T1_wheat.bmp	1424	8	8	1
57.34	4.799	1	OyPy	T3_thread.bmp	T0_spread.bmp	1564	7	7	1
62.139	5.799	2	OnPy	T3_pile.bmp	T1_trial.bmp	1309	7	7	1
67.938	5.8	4	OnPn	T3_swap.bmp	T2_watch.bmp	1246	8	8	1
73.738	5.816	8	FixN	Gen/_Fix_Green.bmp	Gen/_Fix_Red.bmp	1279	8	8	1
79.554	5.299	4	OnPn	T3_tough.bmp	T1_dull.bmp	1559	8	8	1
84.853	5.799	6	PercN	_F3_o4.bmp	_F2_b4.bmp	1563	8	8	1
90.652	5.8	1	OyPy	T3_sweep.bmp	T0_creep.bmp	1652	7	7	1
96.452	5.799	6	PercN	_F3_d6.bmp	_F1_o6.bmp	1237	8	8	1
102.251	4.816	8	FixN	Gen/_Fix_Green.bmp	Gen/_Fix_Red.bmp	1270	8	8	1
107.067	4.799	2	OnPy	T3_stroke.bmp	T1_soak.bmp	1413	7	7	1
111.866	5.283	4	OnPn	T3_trial.bmp	T0_fall.bmp	1334	8	8	1
117.149	5.799	5	PercY	_F3_s6.bmp	_F0_s6.bmp	1476	7	7	1
122.948	4.799	7	FixY	Gen/_Fix_Green.bmp	Gen/_Fix_Green.bmp	1148	7	7	1
127.747	4.8	8	FixN	Gen/_Fix_Red.bmp	Gen/_Fix_Green.bmp	1661	8	8	1
132.547	5.316	7	FixY	Gen/_Fix_Red.bmp	Gen/_Fix_Red.bmp	1286	7	7	1
137.863	4.799	1	OyPy	T3_beef.bmp	T1_reef.bmp	1642	7	7	1
142.662	5.799	3	OyPn	T3_wart.bmp	T1_smart.bmp	1210	8	8	1
148.461	5.799	3	OyPn	T3_dose.bmp	T0_pose.bmp	1507	8	8	1
154.26	4.8	3	OyPn	T3_touch.bmp	T1_couch.bmp	1508	8	8	1
159.06	4.833	6	PercN	_F3_e6.bmp	_F0_s6.bmp	1428	8	8	1
163.893	5.799	8	FixN	Gen/_Fix_Green.bmp	Gen/_Fix_Red.bmp	1156	8	8	1
169.692	5.799	7	FixY	Gen/_Fix_Green.bmp	Gen/_Fix_Green.bmp	1156	7	7	1
175.491	5.299	8	FixN	Gen/_Fix_Red.bmp	Gen/_Fix_Green.bmp	1349	8	8	1
180.79	4.8	7	FixY	Gen/_Fix_Red.bmp	Gen/_Fix_Red.bmp	1258	7	7	1
185.59	5.299	4	OnPn	T3_port.bmp	T1_warm.bmp	1354	8	8	1
190.889	5.816	2	OnPy	T3_june.bmp	T2_noon.bmp	1375	7	7	1
196.705	4.799	4	OnPn	T3_wreath.bmp	T0_leap.bmp	1191	8	8	1
201.504	4.8	5	PercY	_F3_b6.bmp	_F2_b6.bmp	1216	7	7	1
206.304	5.299	3	OyPn	T3_glove.bmp	T0_stove.bmp	1232	8	8	1
211.603	5.799	1	OyPy	T3_numb.bmp	T1_crumb.bmp	1741	7	7	1
217.402	4.816	3	OyPn	T3_stood.bmp	T2_flood.bmp	1566	8	8	1
222.218	5.3	5	PercY	_F3_s4.bmp	_F1_s4.bmp	1502	7	7	1
227.518	5.799	4	OnPn	T3_smart.bmp	T1_drought.bmp	1610	8	8	1
233.317	5.299	2	OnPy	T3_stir.bmp	T2_blur.bmp	1467	7	7	1
238.616	5.3	8	FixN	Gen/_Fix_Red.bmp	Gen/_Fix_Green.bmp	1504	8	8	1
243.916	5.282	7	FixY	Gen/_Fix_Red.bmp	Gen/_Fix_Red.bmp	1165	7	7	1
249.198	5.816	3	OyPn	T3_pool.bmp	T0_wool.bmp	1386	7	8	0
255.014	5.299	3	OyPn	T3_fought.bmp	T2_drought.bmp	1418	8	8	1
260.313	4.8	2	OnPy	T3_flight.bmp	T1_spite.bmp	1311	7	7	1
265.113	5.299	2	OnPy	T3_scheme.bmp	T0_cream.bmp	1191	7	7	1
270.412	5.299	6	PercN	_F3_b6.bmp	_F2_f6.bmp	1172	8	8	1
275.711	5.816	4	OnPn	T3_ghost.bmp	T0_pose.bmp	1409	8	8	1
281.527	4.8	4	OnPn	T3_grace.bmp	T1_fence.bmp	1505	8	8	1
286.327	4.816	3	OyPn	T3_dull.bmp	T2_bull.bmp	2074	8	8	1
291.143	4.799	4	OnPn	T3_ford.bmp	T2_rod.bmp	1593	8	8	1
295.942	5.299	1	OyPy	T3_strap.bmp	T2_gap.bmp	1250	7	7	1
301.241	5.3	4	OnPn	T3_stamp.bmp	T2_tomb.bmp	1319	8	8	1
306.541	5.299	2	OnPy	T3_wheel.bmp	T0_deal.bmp	1211	7	7	1
311.84	5.316	2	OnPy	T3_leap.bmp	T2_sweep.bmp	1224	8	7	0
317.156	4.8	4	OnPn	T3_fault.bmp	T2_note.bmp	1388	8	8	1
321.956	5.799	1	OyPy	T3_bull.bmp	T2_full.bmp	2101	7	7	1
327.755	5.799	2	OnPy	T3_chase.bmp	T2_grace.bmp	1725	7	7	1
333.554	4.799	2	OnPy	T3_float.bmp	T0_note.bmp	1374	7	7	1
338.353	5.816	2	OnPy	T3_bride.bmp	T0_dried.bmp	1567	7	7	1
344.169	5.799	4	OnPn	T3_thief.bmp	T0_plead.bmp	1239	8	8	1
349.968	5.3	1	OyPy	T3_bluff.bmp	T2_puff.bmp	1792	7	7	1
355.268	5.799	5	PercY	_F3_b4.bmp	_F1_b4.bmp	1180	7	7	1
361.067	5.799	1	OyPy	T3_shove.bmp	T1_glove.bmp	1309	7	7	1
366.866	5.316	6	PercN	_F3_d4.bmp	_F1_o4.bmp	1182	8	8	1
372.182	5.783	3	OyPn	T3_stamp.bmp	T2_swamp.bmp	1353	8	8	1
377.965	4.816	3	OyPn	T3_pint.bmp	T0_hint.bmp	1410	7	8	0
