onset	duration	trial_type	trial_name	prime_stim	targ_stim	response_time	resp	cresp	acc
1.513	5.8	6	PercN	_F3_f4.bmp	_F2_d4.bmp	839	8	8	1
7.313	5.799	2	OnPy	T3_fall.bmp	T1_crawl.bmp	1072	7	7	1
13.112	4.816	4	OnPn	T3_gross.bmp	T1_post.bmp	984	7	8	0
17.928	4.799	2	OnPy	T3_tense.bmp	T0_fence.bmp	1320	7	7	1
22.727	5.3	2	OnPy	T3_soup.bmp	T1_loop.bmp	953	7	7	1
28.027	5.299	6	PercN	_F3_e4.bmp	_F0_s4.bmp	846	8	8	1
33.326	4.799	6	PercN	_F3_b4.bmp	_F0_f4.bmp	1154	8	8	1
38.125	5.316	4	OnPn	T3_pool.bmp	T2_tooth.bmp	1283	8	8	1
43.441	5.799	4	OnPn	T3_both.bmp	T2_stroke.bmp	1943	8	8	1
49.24	4.8	1	OyPy	T3_quart.bmp	T1_wart.bmp	1120	7	7	1
54.04	5.299	7	FixY	Gen/_Fix_Red.bmp	Gen/_Fix_Red.bmp	1256	7	7	1
59.339	5.299	5	PercY	_F3_d4.bmp	_F0_d4.bmp	1133	7	7	1
64.638	5.816	5	PercY	_F3_e4.bmp	_F2_e4.bmp	994	7	7	1
70.454	4.8	3	OyPn	T3_smooth.bmp	T0_tooth.bmp	1082	8	8	1
75.254	4.799	2	OnPy	T3_stool.bmp	T1_rule.bmp	1722	7	7	1
80.053	5.299	8	FixN	Gen/_Fix_Red.bmp	Gen/_Fix_Green.bmp	987	8	8	1
85.352	5.3	4	OnPn	T3_flight.bmp	T0_threat.bmp	856	8	8	1
90.652	5.332	2	OnPy	T3_bluff.bmp	T2_tough.bmp	940	7	7	1
95.984	5.8	6	PercN	_F3_s4.bmp	_F1_e4.bmp	1112	8	8	1
101.784	5.782	2	OnPy	T3_halt.bmp	T0_fault.bmp	632	7	7	1
107.566	4.8	4	OnPn	T3_dried.bmp	T1_stood.bmp	1154	8	8	1
112.366	4.799	1	OyPy	T3_brow.bmp	T2_cow.bmp	698	7	7	1
117.165	5.816	1	OyPy	T3_goat.bmp	T1_float.bmp	555	7	7	1
122.981	4.799	1	OyPy	T3_glide.bmp	T2_bride.bmp	1043	7	7	1
127.78	5.3	7	FixY	Gen/_Fix_Red.bmp	Gen/_Fix_Red.bmp	1156	7	7	1
133.08	4.799	8	FixN	Gen/_Fix_Red.bmp	Gen/_Fix_Green.bmp	937	8	8	1
137.879	5.799	3	OyPn	T3_plead.bmp	T2_spread.bmp	905	8	8	1
143.678	4.8	5	PercY	_F3_d6.bmp	_F1_d6.bmp	1154	7	7	1
148.478	5.316	2	OnPy	T3_roast.bmp	T2_ghost.bmp	1634	7	7	1
153.794	4.799	5	PercY	_F3_e6.bmp	_F2_e6.bmp	1055	7	7	1
158.593	5.799	8	FixN	Gen/_Fix_Red.bmp	Gen/_Fix_Green.bmp	1119	8	8	1
164.392	5.8	2	OnPy	T3_odd.bmp	T0_rod.bmp	1072	7	7	1
170.192	5.299	1	OyPy	T3_spoon.bmp	T1_noon.bmp	1121	7	7	1
175.491	5.816	7	FixY	Gen/_Fix_Green.bmp	Gen/_Fix_Green.bmp	1141	7	7	1
181.307	4.799	7	FixY	Gen/_Fix_Green.bmp	Gen/_Fix_Green.bmp	957	7	7	1
186.106	4.799	7	FixY	Gen/_Fix_Red.bmp	Gen/_Fix_Red.bmp	1222	7	7	1
190.905	5.8	8	FixN	Gen/_Fix_Green.bmp	Gen/_Fix_Red.bmp	1063	8	8	1
196.705	4.799	3	OyPn	T3_breath.bmp	T0_wreath.bmp	2999	8	8	1
201.504	5.316	1	OyPy	T3_neat.bmp	T2_wheat.bmp	1424	7	7	1
206.82	5.799	3	OyPn	T3_mouth.bmp	T1_youth.bmp	1540	8	8	1
212.619	5.8	1	OyPy	T3_toss.bmp	T0_moss.bmp	973	7	7	1
218.419	5.316	5	PercY	_F3_f6.bmp	_F1_f6.bmp	878	7	7	1
223.735	5.815	4	OnPn	T3_rule.bmp	T0_blur.bmp	1330	8	8	1
229.55	5.283	3	OyPn	T3_tomb.bmp	T2_comb.bmp	1354	8	8	1
234.833	5.799	5	PercY	_F3_o6.bmp	_F0_o6.bmp	927	7	7	1
240.632	4.8	4	OnPn	T3_june.bmp	T1_loop.bmp	976	8	8	1
245.432	5.299	2	OnPy	T3_warm.bmp	T2_form.bmp	1640	7	7	1
250.731	5.316	4	OnPn	T3_rum.bmp	T2_touch.bmp	1237	8	8	1
256.047	4.799	3	OyPn	T3_gross.bmp	T1_moss.bmp	1177	8	8	1
260.846	4.8	4	OnPn	T3_glow.bmp	T0_stove.bmp	1826	8	8	1
265.646	5.799	4	OnPn	T3_wheel.bmp	T2_sneak.bmp	1178	8	8	1
271.445	5.299	3	OyPn	T3_cow.bmp	T0_glow.bmp	971	8	8	1
276.744	5.316	1	OyPy	T3_pile.bmp	T1_mile.bmp	1120	7	7	1
282.06	5.8	2	OnPy	T3_cheek.bmp	T1_sneak.bmp	924	7	7	1
287.86	5.299	4	OnPn	T3_youth.bmp	T0_hint.bmp	925	8	8	1
293.159	4.799	2	OnPy	T3_thief.bmp	T0_beef.bmp	1001	7	7	1
297.958	5.3	8	FixN	Gen/_Fix_Green.bmp	Gen/_Fix_Red.bmp	898	8	8	1
303.258	5.816	3	OyPn	T3_swarm.bmp	T2_harm.bmp	1143	8	8	1
309.074	4.799	6	PercN	_F3_o6.bmp	_F2_b6.bmp	1415	8	8	1
313.873	5.299	3	OyPn	T3_both.bmp	T1_cloth.bmp	1358	8	8	1
319.172	4.8	8	FixN	Gen/_Fix_Green.bmp	Gen/_Fix_Red.bmp	1276	8	8	1
323.972	5.799	4	OnPn	T3_cream.bmp	T1_swarm.bmp	1229	8	8	1
329.771	5.316	3	OyPn	T3_ford.bmp	T0_word.bmp	1189	8	8	1
335.087	5.299	1	OyPy	T3_vase.bmp	T2_chase.bmp	1305	7	7	1
340.386	5.299	6	PercN	_F3_f6.bmp	_F1_d6.bmp	1094	8	8	1
345.685	5.8	1	OyPy	T3_flood.bmp	T0_blood.bmp	1467	7	7	1
351.485	4.816	2	OnPy	T3_quart.bmp	T2_port.bmp	1499	7	7	1
356.301	4.816	3	OyPn	T3_swap.bmp	T1_gap.bmp	1443	8	8	1
361.117	4.783	1	OyPy	T3_frost.bmp	T0_cost.bmp	1211	7	7	1
365.9	5.799	1	OyPy	T3_harm.bmp	T0_farm.bmp	1380	7	7	1
371.699	5.799	3	OyPn	T3_scratch.bmp	T2_watch.bmp	1301	7	8	0
377.498	5.333	7	FixY	Gen/_Fix_Green.bmp	Gen/_Fix_Green.bmp	1581	7	7	1
