onset	duration	trial_type	trial_name	prime_stim	targ_stim	response_time	resp	cresp	acc
1.515	4.8	3	OyPn	T3_post.bmp	T1_cost.bmp	1396	8	8	1
6.315	5.299	5	PercY	_F3_o4.bmp	_F2_o4.bmp	1436	7	7	1
11.614	4.799	2	OnPy	T3_rum.bmp	T1_numb.bmp	1513	7	7	1
16.413	5.833	7	FixY	Gen/_Fix_Green.bmp	Gen/_Fix_Green.bmp	1826	7	7	1
22.246	4.799	6	PercN	_F3_s6.bmp	_F0_e6.bmp	1065	8	8	1
27.045	4.8	1	OyPy	T3_fought.bmp	T1_sought.bmp	1138	7	7	1
31.845	4.783	1	OyPy	T3_scheme.bmp	T2_theme.bmp	1083	7	7	1
36.628	4.799	5	PercY	_F3_f4.bmp	_F0_f4.bmp	1396	7	7	1
41.427	5.299	1	OyPy	T3_stool.bmp	T0_fool.bmp	1116	7	7	1
46.726	5.316	1	OyPy	T3_soak.bmp	T0_oak.bmp	1081	7	7	1
52.042	5.3	3	OyPn	T3_threat.bmp	T1_wheat.bmp	1077	8	8	1
57.342	4.799	1	OyPy	T3_thread.bmp	T0_spread.bmp	1002	7	7	1
62.141	5.799	2	OnPy	T3_pile.bmp	T1_trial.bmp	1050	7	7	1
67.94	5.799	4	OnPn	T3_swap.bmp	T2_watch.bmp	1763	7	8	0
73.739	5.816	8	FixN	Gen/_Fix_Green.bmp	Gen/_Fix_Red.bmp	1108	8	8	1
79.555	5.3	4	OnPn	T3_tough.bmp	T1_dull.bmp	1172	8	8	1
84.855	5.799	6	PercN	_F3_o4.bmp	_F2_b4.bmp	1137	8	8	1
90.654	5.799	1	OyPy	T3_sweep.bmp	T0_creep.bmp	1121	7	7	1
96.453	5.799	6	PercN	_F3_d6.bmp	_F1_o6.bmp	1218	8	8	1
102.252	4.8	8	FixN	Gen/_Fix_Green.bmp	Gen/_Fix_Red.bmp	995	8	8	1
107.052	4.816	2	OnPy	T3_stroke.bmp	T1_soak.bmp	1123	7	7	1
111.868	5.299	4	OnPn	T3_trial.bmp	T0_fall.bmp	995	8	8	1
117.167	5.799	5	PercY	_F3_s6.bmp	_F0_s6.bmp	1128	7	7	1
122.966	4.8	7	FixY	Gen/_Fix_Green.bmp	Gen/_Fix_Green.bmp	1081	7	7	1
127.766	4.799	8	FixN	Gen/_Fix_Red.bmp	Gen/_Fix_Green.bmp	1065	8	8	1
132.565	5.316	7	FixY	Gen/_Fix_Red.bmp	Gen/_Fix_Red.bmp	1146	7	7	1
137.881	4.799	1	OyPy	T3_beef.bmp	T1_reef.bmp	1230	7	7	1
142.68	5.8	3	OyPn	T3_wart.bmp	T1_smart.bmp	1300	8	8	1
148.48	5.816	3	OyPn	T3_dose.bmp	T0_pose.bmp	1639	8	8	1
154.296	4.799	3	OyPn	T3_touch.bmp	T1_couch.bmp	1103	8	8	1
159.095	4.783	6	PercN	_F3_e6.bmp	_F0_s6.bmp	1032	8	8	1
163.878	5.816	8	FixN	Gen/_Fix_Green.bmp	Gen/_Fix_Red.bmp	1137	8	8	1
169.694	5.799	7	FixY	Gen/_Fix_Green.bmp	Gen/_Fix_Green.bmp	1033	7	7	1
175.493	5.299	8	FixN	Gen/_Fix_Red.bmp	Gen/_Fix_Green.bmp	1042	8	8	1
180.792	4.8	7	FixY	Gen/_Fix_Red.bmp	Gen/_Fix_Red.bmp	1007	7	7	1
185.592	5.299	4	OnPn	T3_port.bmp	T1_warm.bmp	1127	8	8	1
190.891	5.816	2	OnPy	T3_june.bmp	T2_noon.bmp	1468	7	7	1
196.707	4.799	4	OnPn	T3_wreath.bmp	T0_leap.bmp	932	8	8	1
201.506	4.8	5	PercY	_F3_b6.bmp	_F2_b6.bmp	1269	7	7	1
206.306	5.299	3	OyPn	T3_glove.bmp	T0_stove.bmp	1526	8	8	1
211.605	5.799	1	OyPy	T3_numb.bmp	T1_crumb.bmp	1442	7	7	1
217.404	4.805	3	OyPn	T3_stood.bmp	T2_flood.bmp	851	8	8	1
222.209	5.299	5	PercY	_F3_s4.bmp	_F1_s4.bmp	1526	7	7	1
227.508	5.816	4	OnPn	T3_smart.bmp	T1_drought.bmp	1219	8	8	1
233.324	5.299	2	OnPy	T3_stir.bmp	T2_blur.bmp	1659	7	7	1
238.623	5.3	8	FixN	Gen/_Fix_Red.bmp	Gen/_Fix_Green.bmp	1120	8	8	1
243.923	5.299	7	FixY	Gen/_Fix_Red.bmp	Gen/_Fix_Red.bmp	1029	7	7	1
249.222	5.799	3	OyPn	T3_pool.bmp	T0_wool.bmp	1889	8	8	1
255.021	5.299	3	OyPn	T3_fought.bmp	T2_drought.bmp	1282	8	8	1
260.32	4.817	2	OnPy	T3_flight.bmp	T1_spite.bmp	1111	7	7	1
265.137	5.299	2	OnPy	T3_scheme.bmp	T0_cream.bmp	1095	7	7	1
270.436	5.299	6	PercN	_F3_b6.bmp	_F2_f6.bmp	1035	8	8	1
275.735	5.799	4	OnPn	T3_ghost.bmp	T0_pose.bmp	1392	8	8	1
281.534	4.8	4	OnPn	T3_grace.bmp	T1_fence.bmp	1313	8	8	1
286.334	4.799	3	OyPn	T3_dull.bmp	T2_bull.bmp	1105	8	8	1
291.133	4.816	4	OnPn	T3_ford.bmp	T2_rod.bmp	1146	8	8	1
295.949	5.3	1	OyPy	T3_strap.bmp	T2_gap.bmp	1250	7	7	1
301.249	5.299	4	OnPn	T3_stamp.bmp	T2_tomb.bmp	1279	8	8	1
306.548	5.299	2	OnPy	T3_wheel.bmp	T0_deal.bmp	1131	7	7	1
311.847	5.299	2	OnPy	T3_leap.bmp	T2_sweep.bmp	1328	7	7	1
317.146	4.8	4	OnPn	T3_fault.bmp	T2_note.bmp	877	8	8	1
321.946	5.832	1	OyPy	T3_bull.bmp	T2_full.bmp	1085	7	7	1
327.778	5.783	2	OnPy	T3_chase.bmp	T2_grace.bmp	1037	7	7	1
333.561	4.799	2	OnPy	T3_float.bmp	T0_note.bmp	830	7	7	1
338.36	5.8	2	OnPy	T3_bride.bmp	T0_dried.bmp	919	7	7	1
344.16	5.799	4	OnPn	T3_thief.bmp	T0_plead.bmp	855	8	8	1
349.959	5.316	1	OyPy	T3_bluff.bmp	T2_puff.bmp	1096	7	7	1
355.275	5.799	5	PercY	_F3_b4.bmp	_F1_b4.bmp	1092	7	7	1
361.074	5.799	1	OyPy	T3_shove.bmp	T1_glove.bmp	1069	7	7	1
366.873	5.3	6	PercN	_F3_d4.bmp	_F1_o4.bmp	1166	8	8	1
372.173	5.799	3	OyPn	T3_stamp.bmp	T2_swamp.bmp	1130	8	8	1
377.972	4.849	3	OyPn	T3_pint.bmp	T0_hint.bmp	1619	8	8	1
