onset	duration	trial_type	trial_name	prime_stim	targ_stim	response_time	resp	cresp	acc
1.512	4.8	3	OyPn	T3_post.bmp	T1_cost.bmp	1456	7	8	0
6.312	5.299	5	PercY	_F3_o4.bmp	_F2_o4.bmp	1409	7	7	1
11.611	4.816	2	OnPy	T3_rum.bmp	T1_numb.bmp	1693	7	7	1
16.427	5.799	7	FixY	Gen/_Fix_Green.bmp	Gen/_Fix_Green.bmp	1397	7	7	1
22.226	4.8	6	PercN	_F3_s6.bmp	_F0_e6.bmp	1598	8	8	1
27.026	4.799	1	OyPy	T3_fought.bmp	T1_sought.bmp	3302	n/a	7	n/a
31.825	4.799	1	OyPy	T3_scheme.bmp	T2_theme.bmp	2351	7	7	1
36.624	4.816	5	PercY	_F3_f4.bmp	_F0_f4.bmp	1424	7	7	1
41.44	5.316	1	OyPy	T3_stool.bmp	T0_fool.bmp	2216	7	7	1
46.756	5.283	1	OyPy	T3_soak.bmp	T0_oak.bmp	1676	8	7	0
52.039	5.299	3	OyPn	T3_threat.bmp	T1_wheat.bmp	2113	7	8	0
57.338	4.8	1	OyPy	T3_thread.bmp	T0_spread.bmp	1142	7	7	1
62.138	5.799	2	OnPy	T3_pile.bmp	T1_trial.bmp	1934	7	7	1
67.937	5.799	4	OnPn	T3_swap.bmp	T2_watch.bmp	2183	7	8	0
73.736	5.816	8	FixN	Gen/_Fix_Green.bmp	Gen/_Fix_Red.bmp	1240	7	8	0
79.552	5.316	4	OnPn	T3_tough.bmp	T1_dull.bmp	2871	7	8	0
84.868	5.783	6	PercN	_F3_o4.bmp	_F2_b4.bmp	1604	8	8	1
90.651	5.799	1	OyPy	T3_sweep.bmp	T0_creep.bmp	2957	7	7	1
96.45	5.816	6	PercN	_F3_d6.bmp	_F1_o6.bmp	1758	8	8	1
102.266	4.799	8	FixN	Gen/_Fix_Green.bmp	Gen/_Fix_Red.bmp	3575	7	8	0
107.065	4.8	2	OnPy	T3_stroke.bmp	T1_soak.bmp	1295	7	7	1
111.865	5.299	4	OnPn	T3_trial.bmp	T0_fall.bmp	1639	8	8	1
117.164	5.799	5	PercY	_F3_s6.bmp	_F0_s6.bmp	1548	7	7	1
122.963	4.8	7	FixY	Gen/_Fix_Green.bmp	Gen/_Fix_Green.bmp	1397	7	7	1
127.763	4.816	8	FixN	Gen/_Fix_Red.bmp	Gen/_Fix_Green.bmp	3302	n/a	8	n/a
132.579	5.299	7	FixY	Gen/_Fix_Red.bmp	Gen/_Fix_Red.bmp	1509	7	7	1
137.878	4.799	1	OyPy	T3_beef.bmp	T1_reef.bmp	1522	7	7	1
142.677	5.8	3	OyPn	T3_wart.bmp	T1_smart.bmp	2059	8	8	1
148.477	5.799	3	OyPn	T3_dose.bmp	T0_pose.bmp	1947	8	8	1
154.276	4.799	3	OyPn	T3_touch.bmp	T1_couch.bmp	2284	7	8	0
159.075	4.816	6	PercN	_F3_e6.bmp	_F0_s6.bmp	1477	8	8	1
163.891	5.816	8	FixN	Gen/_Fix_Green.bmp	Gen/_Fix_Red.bmp	1405	8	8	1
169.707	5.8	7	FixY	Gen/_Fix_Green.bmp	Gen/_Fix_Green.bmp	2757	7	7	1
175.507	5.282	8	FixN	Gen/_Fix_Red.bmp	Gen/_Fix_Green.bmp	3802	n/a	8	n/a
180.789	4.8	7	FixY	Gen/_Fix_Red.bmp	Gen/_Fix_Red.bmp	2035	7	7	1
185.589	5.316	4	OnPn	T3_port.bmp	T1_warm.bmp	1748	8	8	1
190.905	5.799	2	OnPy	T3_june.bmp	T2_noon.bmp	1688	7	7	1
196.704	4.799	4	OnPn	T3_wreath.bmp	T0_leap.bmp	1984	8	8	1
201.503	4.8	5	PercY	_F3_b6.bmp	_F2_b6.bmp	1689	7	7	1
206.303	5.299	3	OyPn	T3_glove.bmp	T0_stove.bmp	2570	7	8	0
211.602	5.799	1	OyPy	T3_numb.bmp	T1_crumb.bmp	1302	8	7	0
217.401	4.816	3	OyPn	T3_stood.bmp	T2_flood.bmp	2607	8	8	1
222.217	5.299	5	PercY	_F3_s4.bmp	_F1_s4.bmp	1647	7	7	1
227.516	5.8	4	OnPn	T3_smart.bmp	T1_drought.bmp	2956	7	8	0
233.316	5.299	2	OnPy	T3_stir.bmp	T2_blur.bmp	1804	7	7	1
238.615	5.299	8	FixN	Gen/_Fix_Red.bmp	Gen/_Fix_Green.bmp	1337	8	8	1
243.914	5.3	7	FixY	Gen/_Fix_Red.bmp	Gen/_Fix_Red.bmp	2846	7	7	1
249.214	5.816	3	OyPn	T3_pool.bmp	T0_wool.bmp	1722	7	8	0
255.03	5.299	3	OyPn	T3_fought.bmp	T2_drought.bmp	1795	8	8	1
260.329	4.799	2	OnPy	T3_flight.bmp	T1_spite.bmp	1591	7	7	1
265.128	5.3	2	OnPy	T3_scheme.bmp	T0_cream.bmp	1616	8	7	0
270.428	5.299	6	PercN	_F3_b6.bmp	_F2_f6.bmp	1468	8	8	1
275.727	5.816	4	OnPn	T3_ghost.bmp	T0_pose.bmp	2001	8	8	1
281.543	4.799	4	OnPn	T3_grace.bmp	T1_fence.bmp	1937	8	8	1
286.342	4.8	3	OyPn	T3_dull.bmp	T2_bull.bmp	2538	7	8	0
291.142	4.799	4	OnPn	T3_ford.bmp	T2_rod.bmp	2538	8	8	1
295.941	5.316	1	OyPy	T3_strap.bmp	T2_gap.bmp	1827	7	7	1
301.257	5.299	4	OnPn	T3_stamp.bmp	T2_tomb.bmp	1479	8	8	1
306.556	5.3	2	OnPy	T3_wheel.bmp	T0_deal.bmp	1476	7	7	1
311.856	5.299	2	OnPy	T3_leap.bmp	T2_sweep.bmp	1400	7	7	1
317.155	4.799	4	OnPn	T3_fault.bmp	T2_note.bmp	2117	8	8	1
321.954	5.8	1	OyPy	T3_bull.bmp	T2_full.bmp	1398	7	7	1
327.754	5.799	2	OnPy	T3_chase.bmp	T2_grace.bmp	1511	7	7	1
333.553	4.799	2	OnPy	T3_float.bmp	T0_note.bmp	1487	7	7	1
338.352	5.816	2	OnPy	T3_bride.bmp	T0_dried.bmp	1368	7	7	1
344.168	5.799	4	OnPn	T3_thief.bmp	T0_plead.bmp	1416	8	8	1
349.967	5.3	1	OyPy	T3_bluff.bmp	T2_puff.bmp	1577	7	7	1
355.267	5.799	5	PercY	_F3_b4.bmp	_F1_b4.bmp	1453	7	7	1
361.066	5.816	1	OyPy	T3_shove.bmp	T1_glove.bmp	2046	7	7	1
366.882	5.299	6	PercN	_F3_d4.bmp	_F1_o4.bmp	1742	8	8	1
372.181	5.8	3	OyPn	T3_stamp.bmp	T2_swamp.bmp	1643	8	8	1
377.981	4.832	3	OyPn	T3_pint.bmp	T0_hint.bmp	n/a	n/a	8	n/a
