onset	duration	trial_type	trial_name	prime_stim	targ_stim	response_time	resp	cresp	acc
1.511	4.799	3	UnrN	T3_able.bmp	T1_party.bmp	1337	8	8	1
6.31	5.316	6	PercN	_F3_e6.bmp	_F2_s6.bmp	1337	8	8	1
11.626	4.8	2	LowY	T3_seafood.bmp	T2_shrimp.bmp	1110	7	7	1
16.426	4.782	6	PercN	_F3_d6.bmp	_F0_o6.bmp	1126	8	8	1
21.208	5.8	5	PercY	_F3_f6.bmp	_F0_f6.bmp	1320	7	7	1
27.008	5.299	6	PercN	_F3_e4.bmp	_F0_s4.bmp	1240	8	8	1
32.307	5.799	8	FixN	Gen/_Fix_Red.bmp	Gen/_Fix_Green.bmp	1197	8	8	1
38.106	5.3	2	LowY	T3_throw.bmp	T1_catch.bmp	1190	7	7	1
43.406	5.799	2	LowY	T3_save.bmp	T0_keep.bmp	1707	7	7	1
49.205	4.799	7	FixY	Gen/_Fix_Green.bmp	Gen/_Fix_Green.bmp	1235	7	7	1
54.004	5.799	3	UnrN	T3_jewel.bmp	T0_moan.bmp	1308	8	8	1
59.803	4.8	1	HighY	T3_washer.bmp	T1_dryer.bmp	1221	7	7	1
64.603	4.799	1	HighY	T3_sock.bmp	T0_shoe.bmp	1189	7	7	1
69.402	5.799	1	HighY	T3_touch.bmp	T2_feel.bmp	1574	7	7	1
75.201	5.3	7	FixY	Gen/_Fix_Green.bmp	Gen/_Fix_Green.bmp	1159	7	7	1
80.501	4.799	2	LowY	T3_glue.bmp	T2_sticky.bmp	1163	7	7	1
85.3	5.799	1	HighY	T3_yell.bmp	T0_scream.bmp	1700	7	7	1
91.099	5.3	2	LowY	T3_temper.bmp	T0_tantrum.bmp	1717	7	7	1
96.399	5.799	2	LowY	T3_cheese.bmp	T2_cracker.bmp	1201	7	7	1
102.198	5.299	3	UnrN	T3_rubber.bmp	T2_straw.bmp	1250	8	8	1
107.497	5.8	7	FixY	Gen/_Fix_Red.bmp	Gen/_Fix_Red.bmp	1415	7	7	1
113.297	4.799	5	PercY	_F3_o6.bmp	_F1_o6.bmp	1400	7	7	1
118.096	5.299	7	FixY	Gen/_Fix_Red.bmp	Gen/_Fix_Red.bmp	1312	7	7	1
123.395	5.3	1	HighY	T3_winner.bmp	T1_loser.bmp	1285	7	7	1
128.695	4.799	1	HighY	T3_start.bmp	T2_finish.bmp	1129	7	7	1
133.494	4.816	2	LowY	T3_children.bmp	T2_kids.bmp	1154	7	7	1
138.31	5.299	1	HighY	T3_question.bmp	T0_answer.bmp	1266	7	7	1
143.609	4.8	3	UnrN	T3_stream.bmp	T0_rear.bmp	1263	8	8	1
148.409	4.783	7	FixY	Gen/_Fix_Green.bmp	Gen/_Fix_Green.bmp	1047	7	7	1
153.192	5.299	3	UnrN	T3_hearing.bmp	T0_bottle.bmp	1233	8	8	1
158.491	5.299	1	HighY	T3_above.bmp	T2_below.bmp	1205	7	7	1
163.79	5.283	8	FixN	Gen/_Fix_Green.bmp	Gen/_Fix_Red.bmp	1130	8	8	1
169.073	5.799	1	HighY	T3_circus.bmp	T2_clown.bmp	1215	7	7	1
174.872	5.299	5	PercY	_F3_f4.bmp	_F2_f4.bmp	1160	7	7	1
180.171	5.8	3	UnrN	T3_rich.bmp	T2_pointed.bmp	1197	8	8	1
185.971	5.799	6	PercN	_F3_s4.bmp	_F1_e4.bmp	1165	8	8	1
191.77	5.299	8	FixN	Gen/_Fix_Green.bmp	Gen/_Fix_Red.bmp	1166	8	8	1
197.069	5.8	1	HighY	T3_mitten.bmp	T1_glove.bmp	1291	7	7	1
202.869	5.799	2	LowY	T3_silent.bmp	T1_quiet.bmp	1236	7	7	1
208.668	4.799	3	UnrN	T3_towel.bmp	T1_puppet.bmp	1988	8	8	1
213.467	5.299	1	HighY	T3_syrup.bmp	T0_pancakes.bmp	1205	7	7	1
218.766	5.3	3	UnrN	T3_upper.bmp	T1_broke.bmp	1914	8	8	1
224.066	5.299	2	LowY	T3_lobster.bmp	T0_crab.bmp	1222	7	7	1
229.365	5.799	8	FixN	Gen/_Fix_Red.bmp	Gen/_Fix_Green.bmp	1379	8	8	1
235.164	5.8	3	UnrN	T3_ranch.bmp	T0_chin.bmp	1132	8	8	1
240.964	5.799	7	FixY	Gen/_Fix_Red.bmp	Gen/_Fix_Red.bmp	1156	7	7	1
246.763	5.299	2	LowY	T3_razor.bmp	T0_blade.bmp	1221	7	7	1
252.062	4.8	8	FixN	Gen/_Fix_Red.bmp	Gen/_Fix_Green.bmp	1274	8	8	1
256.862	4.799	1	HighY	T3_jam.bmp	T1_jelly.bmp	1163	7	7	1
261.661	5.816	2	LowY	T3_smudge.bmp	T1_smear.bmp	1163	7	7	1
267.477	4.799	3	UnrN	T3_clerk.bmp	T2_bent.bmp	1091	8	8	1
272.276	4.8	2	LowY	T3_finish.bmp	T1_end.bmp	1332	7	7	1
277.076	4.782	6	PercN	_F3_s6.bmp	_F2_e6.bmp	1292	8	8	1
281.858	4.8	8	FixN	Gen/_Fix_Green.bmp	Gen/_Fix_Red.bmp	1374	8	8	1
286.658	5.299	5	PercY	_F3_s6.bmp	_F0_s6.bmp	1302	7	7	1
291.957	5.799	5	PercY	_F3_b4.bmp	_F1_b4.bmp	1203	7	7	1
297.756	4.8	5	PercY	_F3_e4.bmp	_F2_e4.bmp	1412	7	7	1
302.556	5.299	3	UnrN	T3_map.bmp	T2_hut.bmp	1652	8	8	1
307.855	5.799	3	UnrN	T3_scar.bmp	T1_tunnel.bmp	1681	8	8	1
313.654	5.333	6	PercN	_F3_b4.bmp	_F1_f4.bmp	1266	8	8	1
