onset	duration	trial_type	trial_name	prime_stim	targ_stim	response_time	resp	cresp	acc
1.506	5.816	6	PercN	_F3_f4.bmp	_F2_d4.bmp	1046	8	8	1
7.322	5.8	2	OnPy	T3_fall.bmp	T1_crawl.bmp	1598	8	7	0
13.122	4.799	4	OnPn	T3_gross.bmp	T1_post.bmp	1087	8	8	1
17.921	4.799	2	OnPy	T3_tense.bmp	T0_fence.bmp	1687	8	7	0
22.72	5.3	2	OnPy	T3_soup.bmp	T1_loop.bmp	1320	8	7	0
28.02	5.316	6	PercN	_F3_e4.bmp	_F0_s4.bmp	1164	8	8	1
33.336	4.799	6	PercN	_F3_b4.bmp	_F0_f4.bmp	1016	8	8	1
38.135	5.299	4	OnPn	T3_pool.bmp	T2_tooth.bmp	1321	8	8	1
43.434	5.8	4	OnPn	T3_both.bmp	T2_stroke.bmp	1430	8	8	1
49.234	4.799	1	OyPy	T3_quart.bmp	T1_wart.bmp	3302	n/a	7	n/a
54.033	5.316	7	FixY	Gen/_Fix_Red.bmp	Gen/_Fix_Red.bmp	1191	7	7	1
59.349	5.299	5	PercY	_F3_d4.bmp	_F0_d4.bmp	1163	7	7	1
64.648	5.816	5	PercY	_F3_e4.bmp	_F2_e4.bmp	1392	7	7	1
70.464	4.8	3	OyPn	T3_smooth.bmp	T0_tooth.bmp	3680	7	8	0
75.264	4.799	2	OnPy	T3_stool.bmp	T1_rule.bmp	2337	8	7	0
80.063	5.283	8	FixN	Gen/_Fix_Red.bmp	Gen/_Fix_Green.bmp	1121	8	8	1
85.346	5.316	4	OnPn	T3_flight.bmp	T0_threat.bmp	2046	8	8	1
90.662	5.299	2	OnPy	T3_bluff.bmp	T2_tough.bmp	1898	8	7	0
95.961	5.799	6	PercN	_F3_s4.bmp	_F1_e4.bmp	1559	8	8	1
101.76	5.799	2	OnPy	T3_halt.bmp	T0_fault.bmp	1832	8	7	0
107.559	4.817	4	OnPn	T3_dried.bmp	T1_stood.bmp	1385	8	8	1
112.376	4.799	1	OyPy	T3_brow.bmp	T2_cow.bmp	2177	7	7	1
117.175	5.799	1	OyPy	T3_goat.bmp	T1_float.bmp	1761	8	7	0
122.974	4.8	1	OyPy	T3_glide.bmp	T2_bride.bmp	1338	7	7	1
127.774	5.299	7	FixY	Gen/_Fix_Red.bmp	Gen/_Fix_Red.bmp	803	7	7	1
133.073	4.799	8	FixN	Gen/_Fix_Red.bmp	Gen/_Fix_Green.bmp	991	8	8	1
137.872	5.816	3	OyPn	T3_plead.bmp	T2_spread.bmp	1480	8	8	1
143.688	4.8	5	PercY	_F3_d6.bmp	_F1_d6.bmp	1488	7	7	1
148.488	5.299	2	OnPy	T3_roast.bmp	T2_ghost.bmp	1409	8	7	0
153.787	4.799	5	PercY	_F3_e6.bmp	_F2_e6.bmp	1349	7	7	1
158.586	5.8	8	FixN	Gen/_Fix_Red.bmp	Gen/_Fix_Green.bmp	2150	8	8	1
164.386	5.815	2	OnPy	T3_odd.bmp	T0_rod.bmp	3127	8	7	0
170.201	5.3	1	OyPy	T3_spoon.bmp	T1_noon.bmp	2247	8	7	0
175.501	5.799	7	FixY	Gen/_Fix_Green.bmp	Gen/_Fix_Green.bmp	1139	7	7	1
181.3	4.799	7	FixY	Gen/_Fix_Green.bmp	Gen/_Fix_Green.bmp	1092	7	7	1
186.099	4.8	7	FixY	Gen/_Fix_Red.bmp	Gen/_Fix_Red.bmp	1141	7	7	1
190.899	5.816	8	FixN	Gen/_Fix_Green.bmp	Gen/_Fix_Red.bmp	1117	8	8	1
196.715	4.816	3	OyPn	T3_breath.bmp	T0_wreath.bmp	2581	8	8	1
201.531	5.299	1	OyPy	T3_neat.bmp	T2_wheat.bmp	1941	8	7	0
206.83	5.783	3	OyPn	T3_mouth.bmp	T1_youth.bmp	1722	8	8	1
212.613	5.799	1	OyPy	T3_toss.bmp	T0_moss.bmp	883	7	7	1
218.412	5.316	5	PercY	_F3_f6.bmp	_F1_f6.bmp	1052	7	7	1
223.728	5.799	4	OnPn	T3_rule.bmp	T0_blur.bmp	2704	7	8	0
229.527	5.3	3	OyPn	T3_tomb.bmp	T2_comb.bmp	3185	8	8	1
234.827	5.799	5	PercY	_F3_o6.bmp	_F0_o6.bmp	1286	7	7	1
240.626	4.816	4	OnPn	T3_june.bmp	T1_loop.bmp	1670	8	8	1
245.442	5.299	2	OnPy	T3_warm.bmp	T2_form.bmp	1950	7	7	1
250.741	5.299	4	OnPn	T3_rum.bmp	T2_touch.bmp	1219	7	8	0
256.04	4.8	3	OyPn	T3_gross.bmp	T1_moss.bmp	3302	n/a	8	n/a
260.84	4.799	4	OnPn	T3_glow.bmp	T0_stove.bmp	1136	8	8	1
265.639	5.816	4	OnPn	T3_wheel.bmp	T2_sneak.bmp	1569	8	8	1
271.455	5.299	3	OyPn	T3_cow.bmp	T0_glow.bmp	1153	7	8	0
276.754	5.3	1	OyPy	T3_pile.bmp	T1_mile.bmp	1726	8	7	0
282.054	5.799	2	OnPy	T3_cheek.bmp	T1_sneak.bmp	1842	7	7	1
287.853	5.299	4	OnPn	T3_youth.bmp	T0_hint.bmp	1195	8	8	1
293.152	4.816	2	OnPy	T3_thief.bmp	T0_beef.bmp	3302	n/a	7	n/a
297.968	5.3	8	FixN	Gen/_Fix_Green.bmp	Gen/_Fix_Red.bmp	744	8	8	1
303.268	5.799	3	OyPn	T3_swarm.bmp	T2_harm.bmp	1076	8	8	1
309.067	4.799	6	PercN	_F3_o6.bmp	_F2_b6.bmp	1157	8	8	1
313.866	5.3	3	OyPn	T3_both.bmp	T1_cloth.bmp	1366	7	8	0
319.166	4.816	8	FixN	Gen/_Fix_Green.bmp	Gen/_Fix_Red.bmp	842	8	8	1
323.982	5.799	4	OnPn	T3_cream.bmp	T1_swarm.bmp	2370	8	8	1
329.781	5.316	3	OyPn	T3_ford.bmp	T0_word.bmp	2146	7	8	0
335.097	5.299	1	OyPy	T3_vase.bmp	T2_chase.bmp	1927	8	7	0
340.396	5.283	6	PercN	_F3_f6.bmp	_F1_d6.bmp	940	8	8	1
345.679	5.816	1	OyPy	T3_flood.bmp	T0_blood.bmp	1273	8	7	0
351.495	4.799	2	OnPy	T3_quart.bmp	T2_port.bmp	1457	8	7	0
356.294	4.8	3	OyPn	T3_swap.bmp	T1_gap.bmp	1584	7	8	0
361.094	4.799	1	OyPy	T3_frost.bmp	T0_cost.bmp	2723	8	7	0
365.893	5.799	1	OyPy	T3_harm.bmp	T0_farm.bmp	1947	7	7	1
371.692	5.816	3	OyPn	T3_scratch.bmp	T2_watch.bmp	1724	8	8	1
377.508	5.333	7	FixY	Gen/_Fix_Green.bmp	Gen/_Fix_Green.bmp	956	7	7	1
