onset	duration	trial_type	trial_name	prime_stim	targ_stim	response_time	resp	cresp	acc
1.515	4.799	3	OyPn	T3_post.bmp	T1_cost.bmp	1424	7	8	0
6.314	5.3	5	PercY	_F3_o4.bmp	_F2_o4.bmp	2761	7	7	1
11.614	4.799	2	OnPy	T3_rum.bmp	T1_numb.bmp	1910	7	7	1
16.413	5.816	7	FixY	Gen/_Fix_Green.bmp	Gen/_Fix_Green.bmp	870	7	7	1
22.229	4.799	6	PercN	_F3_s6.bmp	_F0_e6.bmp	1630	7	8	0
27.028	4.8	1	OyPy	T3_fought.bmp	T1_sought.bmp	1376	7	7	1
31.828	4.799	1	OyPy	T3_scheme.bmp	T2_theme.bmp	1111	8	7	0
36.627	4.816	5	PercY	_F3_f4.bmp	_F0_f4.bmp	1288	7	7	1
41.443	5.299	1	OyPy	T3_stool.bmp	T0_fool.bmp	1072	8	7	0
46.742	5.3	1	OyPy	T3_soak.bmp	T0_oak.bmp	1845	7	7	1
52.042	5.299	3	OyPn	T3_threat.bmp	T1_wheat.bmp	2145	8	8	1
57.341	4.799	1	OyPy	T3_thread.bmp	T0_spread.bmp	1782	7	7	1
62.14	5.8	2	OnPy	T3_pile.bmp	T1_trial.bmp	1359	8	7	0
67.94	5.799	4	OnPn	T3_swap.bmp	T2_watch.bmp	1647	8	8	1
73.739	5.816	8	FixN	Gen/_Fix_Green.bmp	Gen/_Fix_Red.bmp	880	8	8	1
79.555	5.299	4	OnPn	T3_tough.bmp	T1_dull.bmp	1408	8	8	1
84.854	5.799	6	PercN	_F3_o4.bmp	_F2_b4.bmp	1925	8	8	1
90.653	5.8	1	OyPy	T3_sweep.bmp	T0_creep.bmp	2198	8	7	0
96.453	5.799	6	PercN	_F3_d6.bmp	_F1_o6.bmp	2294	8	8	1
102.252	4.816	8	FixN	Gen/_Fix_Green.bmp	Gen/_Fix_Red.bmp	2663	8	8	1
107.068	4.799	2	OnPy	T3_stroke.bmp	T1_soak.bmp	1919	7	7	1
111.867	5.3	4	OnPn	T3_trial.bmp	T0_fall.bmp	1176	8	8	1
117.167	5.799	5	PercY	_F3_s6.bmp	_F0_s6.bmp	1068	7	7	1
122.966	4.799	7	FixY	Gen/_Fix_Green.bmp	Gen/_Fix_Green.bmp	2349	7	7	1
127.765	4.8	8	FixN	Gen/_Fix_Red.bmp	Gen/_Fix_Green.bmp	1110	8	8	1
132.565	5.316	7	FixY	Gen/_Fix_Red.bmp	Gen/_Fix_Red.bmp	1038	7	7	1
137.881	4.799	1	OyPy	T3_beef.bmp	T1_reef.bmp	2738	8	7	0
142.68	5.799	3	OyPn	T3_wart.bmp	T1_smart.bmp	1795	7	8	0
148.479	5.8	3	OyPn	T3_dose.bmp	T0_pose.bmp	1428	8	8	1
154.279	4.799	3	OyPn	T3_touch.bmp	T1_couch.bmp	2292	8	8	1
159.078	4.799	6	PercN	_F3_e6.bmp	_F0_s6.bmp	909	8	8	1
163.877	5.816	8	FixN	Gen/_Fix_Green.bmp	Gen/_Fix_Red.bmp	1534	8	8	1
169.693	5.816	7	FixY	Gen/_Fix_Green.bmp	Gen/_Fix_Green.bmp	1349	7	7	1
175.509	5.3	8	FixN	Gen/_Fix_Red.bmp	Gen/_Fix_Green.bmp	2054	8	8	1
180.809	4.782	7	FixY	Gen/_Fix_Red.bmp	Gen/_Fix_Red.bmp	1699	7	7	1
185.591	5.3	4	OnPn	T3_port.bmp	T1_warm.bmp	1516	8	8	1
190.891	5.816	2	OnPy	T3_june.bmp	T2_noon.bmp	2089	8	7	0
196.707	4.799	4	OnPn	T3_wreath.bmp	T0_leap.bmp	2953	8	8	1
201.506	4.799	5	PercY	_F3_b6.bmp	_F2_b6.bmp	1041	7	7	1
206.305	5.3	3	OyPn	T3_glove.bmp	T0_stove.bmp	1978	8	8	1
211.605	5.799	1	OyPy	T3_numb.bmp	T1_crumb.bmp	1406	7	7	1
217.404	4.799	3	OyPn	T3_stood.bmp	T2_flood.bmp	2231	8	8	1
222.203	5.316	5	PercY	_F3_s4.bmp	_F1_s4.bmp	848	7	7	1
227.519	5.8	4	OnPn	T3_smart.bmp	T1_drought.bmp	1236	8	8	1
233.319	5.299	2	OnPy	T3_stir.bmp	T2_blur.bmp	1533	7	7	1
238.618	5.299	8	FixN	Gen/_Fix_Red.bmp	Gen/_Fix_Green.bmp	745	8	8	1
243.917	5.299	7	FixY	Gen/_Fix_Red.bmp	Gen/_Fix_Red.bmp	966	7	7	1
249.216	5.816	3	OyPn	T3_pool.bmp	T0_wool.bmp	2339	8	8	1
255.032	5.3	3	OyPn	T3_fought.bmp	T2_drought.bmp	1259	7	8	0
260.332	4.799	2	OnPy	T3_flight.bmp	T1_spite.bmp	967	8	7	0
265.131	5.299	2	OnPy	T3_scheme.bmp	T0_cream.bmp	1648	8	7	0
270.43	5.3	6	PercN	_F3_b6.bmp	_F2_f6.bmp	1957	8	8	1
275.73	5.799	4	OnPn	T3_ghost.bmp	T0_pose.bmp	1665	8	8	1
281.529	4.816	4	OnPn	T3_grace.bmp	T1_fence.bmp	2338	8	8	1
286.345	4.799	3	OyPn	T3_dull.bmp	T2_bull.bmp	1698	8	8	1
291.144	4.8	4	OnPn	T3_ford.bmp	T2_rod.bmp	1995	8	8	1
295.944	5.316	1	OyPy	T3_strap.bmp	T2_gap.bmp	1651	8	7	0
301.26	5.299	4	OnPn	T3_stamp.bmp	T2_tomb.bmp	1199	8	8	1
306.559	5.283	2	OnPy	T3_wheel.bmp	T0_deal.bmp	1692	8	7	0
311.842	5.316	2	OnPy	T3_leap.bmp	T2_sweep.bmp	1953	8	7	0
317.158	4.799	4	OnPn	T3_fault.bmp	T2_note.bmp	1645	8	8	1
321.957	5.799	1	OyPy	T3_bull.bmp	T2_full.bmp	2302	8	7	0
327.756	5.8	2	OnPy	T3_chase.bmp	T2_grace.bmp	1783	8	7	0
333.556	4.799	2	OnPy	T3_float.bmp	T0_note.bmp	2367	7	7	1
338.355	5.816	2	OnPy	T3_bride.bmp	T0_dried.bmp	1256	8	7	0
344.171	5.799	4	OnPn	T3_thief.bmp	T0_plead.bmp	1368	7	8	0
349.97	5.3	1	OyPy	T3_bluff.bmp	T2_puff.bmp	3802	NA	7	NA
355.27	5.799	5	PercY	_F3_b4.bmp	_F1_b4.bmp	1502	7	7	1
361.069	5.799	1	OyPy	T3_shove.bmp	T1_glove.bmp	2902	8	7	0
366.868	5.316	6	PercN	_F3_d4.bmp	_F1_o4.bmp	1039	8	8	1
372.184	5.799	3	OyPn	T3_stamp.bmp	T2_swamp.bmp	2115	7	8	0
377.983	4.833	3	OyPn	T3_pint.bmp	T0_hint.bmp	1732	8	8	1
